participant_id,round,arm,choice,reward,own_success,own_failure,group_success,group_failure,prev_choice,prev_reward,condition
01JVR93SZ13KDJD015EVHBP1B2,1,0,7,1.0,0,0,0,0,-1,,asocial
01JVR93SZ13KDJD015EVHBP1B2,1,1,7,1.0,0,0,0,0,-1,,asocial
01JVR93SZ13KDJD015EVHBP1B2,1,2,7,1.0,0,0,0,0,-1,,asocial
01JVR93SZ13KDJD015EVHBP1B2,1,3,7,1.0,0,0,0,0,-1,,asocial
01JVR93SZ13KDJD015EVHBP1B2,1,4,7,1.0,0,0,0,0,-1,,asocial
01JVR93SZ13KDJD015EVHBP1B2,1,5,7,1.0,0,0,0,0,-1,,asocial
01JVR93SZ13KDJD015EVHBP1B2,1,6,7,1.0,0,0,0,0,-1,,asocial
01JVR93SZ13KDJD015EVHBP1B2,1,7,7,1.0,0,0,0,0,-1,,asocial
01JVR93SZ13KDJD015EVHBP1B2,1,8,7,1.0,0,0,0,0,-1,,asocial
01JVR93SZ13KDJD015EVHBP1B2,1,9,7,1.0,0,0,0,0,-1,,asocial
01JVR93SZ13KDJD015EVHBP1B2,2,0,7,1.0,0,0,1,0,7,1.0,asocial
01JVR93SZ13KDJD015EVHBP1B2,2,1,7,1.0,0,0,1,0,7,1.0,asocial
01JVR93SZ13KDJD015EVHBP1B2,2,2,7,1.0,0,0,1,0,7,1.0,asocial
01JVR93SZ13KDJD015EVHBP1B2,2,3,7,1.0,0,0,1,0,7,1.0,asocial
01JVR93SZ13KDJD015EVHBP1B2,2,4,7,1.0,0,0,1,0,7,1.0,asocial
01JVR93SZ13KDJD015EVHBP1B2,2,5,7,1.0,0,0,0,1,7,1.0,asocial
01JVR93SZ13KDJD015EVHBP1B2,2,6,7,1.0,0,0,1,0,7,1.0,asocial
01JVR93SZ13KDJD015EVHBP1B2,2,7,7,1.0,1,0,1,0,7,1.0,asocial
01JVR93SZ13KDJD015EVHBP1B2,2,8,7,1.0,0,0,1,0,7,1.0,asocial
01JVR93SZ13KDJD015EVHBP1B2,2,9,7,1.0,0,0,1,0,7,1.0,asocial
01JVR93SZ13KDJD015EVHBP1B2,3,0,7,1.0,0,0,2,0,7,1.0,asocial
01JVR93SZ13KDJD015EVHBP1B2,3,1,7,1.0,0,0,3,0,7,1.0,asocial
01JVR93SZ13KDJD015EVHBP1B2,3,2,7,1.0,0,0,2,0,7,1.0,asocial
01JVR93SZ13KDJD015EVHBP1B2,3,3,7,1.0,0,0,2,0,7,1.0,asocial
01JVR93SZ13KDJD015EVHBP1B2,3,4,7,1.0,0,0,1,1,7,1.0,asocial
01JVR93SZ13KDJD015EVHBP1B2,3,5,7,1.0,0,0,0,1,7,1.0,asocial
01JVR93SZ13KDJD015EVHBP1B2,3,6,7,1.0,0,0,2,0,7,1.0,asocial
01JVR93SZ13KDJD015EVHBP1B2,3,7,7,1.0,2,0,2,0,7,1.0,asocial
01JVR93SZ13KDJD015EVHBP1B2,3,8,7,1.0,0,0,2,0,7,1.0,asocial
01JVR93SZ13KDJD015EVHBP1B2,3,9,7,1.0,0,0,2,0,7,1.0,asocial
01JVR93SZ13KDJD015EVHBP1B2,4,0,7,1.0,0,0,2,2,7,1.0,asocial
01JVR93SZ13KDJD015EVHBP1B2,4,1,7,1.0,0,0,3,0,7,1.0,asocial
01JVR93SZ13KDJD015EVHBP1B2,4,2,7,1.0,0,0,3,0,7,1.0,asocial
01JVR93SZ13KDJD015EVHBP1B2,4,3,7,1.0,0,0,3,0,7,1.0,asocial
01JVR93SZ13KDJD015EVHBP1B2,4,4,7,1.0,0,0,2,1,7,1.0,asocial
01JVR93SZ13KDJD015EVHBP1B2,4,5,7,1.0,0,0,0,1,7,1.0,asocial
01JVR93SZ13KDJD015EVHBP1B2,4,6,7,1.0,0,0,3,0,7,1.0,asocial
01JVR93SZ13KDJD015EVHBP1B2,4,7,7,1.0,3,0,3,0,7,1.0,asocial
01JVR93SZ13KDJD015EVHBP1B2,4,8,7,1.0,0,0,2,1,7,1.0,asocial
01JVR93SZ13KDJD015EVHBP1B2,4,9,7,1.0,0,0,3,0,7,1.0,asocial
01JVR93SZ13KDJD015EVHBP1B2,5,0,7,1.0,0,0,3,2,7,1.0,asocial
01JVR93SZ13KDJD015EVHBP1B2,5,1,7,1.0,0,0,6,0,7,1.0,asocial
01JVR93SZ13KDJD015EVHBP1B2,5,2,7,1.0,0,0,4,0,7,1.0,asocial
01JVR93SZ13KDJD015EVHBP1B2,5,3,7,1.0,0,0,5,0,7,1.0,asocial
01JVR93SZ13KDJD015EVHBP1B2,5,4,7,1.0,0,0,2,1,7,1.0,asocial
01JVR93SZ13KDJD015EVHBP1B2,5,5,7,1.0,0,0,0,1,7,1.0,asocial
01JVR93SZ13KDJD015EVHBP1B2,5,6,7,1.0,0,0,4,0,7,1.0,asocial
01JVR93SZ13KDJD015EVHBP1B2,5,7,7,1.0,4,0,4,0,7,1.0,asocial
01JVR93SZ13KDJD015EVHBP1B2,5,8,7,1.0,0,0,3,1,7,1.0,asocial
01JVR93SZ13KDJD015EVHBP1B2,5,9,7,1.0,0,0,3,0,7,1.0,asocial
01JVR93SZ13KDJD015EVHBP1B2,6,0,7,1.0,0,0,4,2,7,1.0,asocial
01JVR93SZ13KDJD015EVHBP1B2,6,1,7,1.0,0,0,9,0,7,1.0,asocial
01JVR93SZ13KDJD015EVHBP1B2,6,2,7,1.0,0,0,5,0,7,1.0,asocial
01JVR93SZ13KDJD015EVHBP1B2,6,3,7,1.0,0,0,6,0,7,1.0,asocial
01JVR93SZ13KDJD015EVHBP1B2,6,4,7,1.0,0,0,2,1,7,1.0,asocial
01JVR93SZ13KDJD015EVHBP1B2,6,5,7,1.0,0,0,0,1,7,1.0,asocial
01JVR93SZ13KDJD015EVHBP1B2,6,6,7,1.0,0,0,6,0,7,1.0,asocial
01JVR93SZ13KDJD015EVHBP1B2,6,7,7,1.0,5,0,5,0,7,1.0,asocial
01JVR93SZ13KDJD015EVHBP1B2,6,8,7,1.0,0,0,4,1,7,1.0,asocial
01JVR93SZ13KDJD015EVHBP1B2,6,9,7,1.0,0,0,3,0,7,1.0,asocial
01JVR93SZ13KDJD015EVHBP1B2,7,0,7,1.0,0,0,5,2,7,1.0,asocial
01JVR93SZ13KDJD015EVHBP1B2,7,1,7,1.0,0,0,11,1,7,1.0,asocial
01JVR93SZ13KDJD015EVHBP1B2,7,2,7,1.0,0,0,6,0,7,1.0,asocial
01JVR93SZ13KDJD015EVHBP1B2,7,3,7,1.0,0,0,7,0,7,1.0,asocial
01JVR93SZ13KDJD015EVHBP1B2,7,4,7,1.0,0,0,2,1,7,1.0,asocial
01JVR93SZ13KDJD015EVHBP1B2,7,5,7,1.0,0,0,0,1,7,1.0,asocial
01JVR93SZ13KDJD015EVHBP1B2,7,6,7,1.0,0,0,7,0,7,1.0,asocial
01JVR93SZ13KDJD015EVHBP1B2,7,7,7,1.0,6,0,6,0,7,1.0,asocial
01JVR93SZ13KDJD015EVHBP1B2,7,8,7,1.0,0,0,5,2,7,1.0,asocial
01JVR93SZ13KDJD015EVHBP1B2,7,9,7,1.0,0,0,3,0,7,1.0,asocial
01JVR93SZ13KDJD015EVHBP1B2,8,0,7,1.0,0,0,6,2,7,1.0,asocial
01JVR93SZ13KDJD015EVHBP1B2,8,1,7,1.0,0,0,14,1,7,1.0,asocial
01JVR93SZ13KDJD015EVHBP1B2,8,2,7,1.0,0,0,7,0,7,1.0,asocial
01JVR93SZ13KDJD015EVHBP1B2,8,3,7,1.0,0,0,7,0,7,1.0,asocial
01JVR93SZ13KDJD015EVHBP1B2,8,4,7,1.0,0,0,3,1,7,1.0,asocial
01JVR93SZ13KDJD015EVHBP1B2,8,5,7,1.0,0,0,0,1,7,1.0,asocial
01JVR93SZ13KDJD015EVHBP1B2,8,6,7,1.0,0,0,7,1,7,1.0,asocial
01JVR93SZ13KDJD015EVHBP1B2,8,7,7,1.0,7,0,7,0,7,1.0,asocial
01JVR93SZ13KDJD015EVHBP1B2,8,8,7,1.0,0,0,6,2,7,1.0,asocial
01JVR93SZ13KDJD015EVHBP1B2,8,9,7,1.0,0,0,4,0,7,1.0,asocial
01JVR93SZ13KDJD015EVHBP1B2,9,0,7,1.0,0,0,9,2,7,1.0,asocial
01JVR93SZ13KDJD015EVHBP1B2,9,1,7,1.0,0,0,17,1,7,1.0,asocial
01JVR93SZ13KDJD015EVHBP1B2,9,2,7,1.0,0,0,8,0,7,1.0,asocial
01JVR93SZ13KDJD015EVHBP1B2,9,3,7,1.0,0,0,7,0,7,1.0,asocial
01JVR93SZ13KDJD015EVHBP1B2,9,4,7,1.0,0,0,3,1,7,1.0,asocial
01JVR93SZ13KDJD015EVHBP1B2,9,5,7,1.0,0,0,0,1,7,1.0,asocial
01JVR93SZ13KDJD015EVHBP1B2,9,6,7,1.0,0,0,8,1,7,1.0,asocial
01JVR93SZ13KDJD015EVHBP1B2,9,7,7,1.0,8,0,8,0,7,1.0,asocial
01JVR93SZ13KDJD015EVHBP1B2,9,8,7,1.0,0,0,7,2,7,1.0,asocial
01JVR93SZ13KDJD015EVHBP1B2,9,9,7,1.0,0,0,4,0,7,1.0,asocial
01JVR93SZ13KDJD015EVHBP1B2,10,0,7,1.0,0,0,10,2,7,1.0,asocial
01JVR93SZ13KDJD015EVHBP1B2,10,1,7,1.0,0,0,19,2,7,1.0,asocial
01JVR93SZ13KDJD015EVHBP1B2,10,2,7,1.0,0,0,9,0,7,1.0,asocial
01JVR93SZ13KDJD015EVHBP1B2,10,3,7,1.0,0,0,8,0,7,1.0,asocial
01JVR93SZ13KDJD015EVHBP1B2,10,4,7,1.0,0,0,3,2,7,1.0,asocial
01JVR93SZ13KDJD015EVHBP1B2,10,5,7,1.0,0,0,0,1,7,1.0,asocial
01JVR93SZ13KDJD015EVHBP1B2,10,6,7,1.0,0,0,9,1,7,1.0,asocial
01JVR93SZ13KDJD015EVHBP1B2,10,7,7,1.0,9,0,9,0,7,1.0,asocial
01JVR93SZ13KDJD015EVHBP1B2,10,8,7,1.0,0,0,8,2,7,1.0,asocial
01JVR93SZ13KDJD015EVHBP1B2,10,9,7,1.0,0,0,4,0,7,1.0,asocial
01JVR93SZ13KDJD015EVHBP1B2,11,0,7,1.0,0,0,11,2,7,1.0,asocial
01JVR93SZ13KDJD015EVHBP1B2,11,1,7,1.0,0,0,22,2,7,1.0,asocial
01JVR93SZ13KDJD015EVHBP1B2,11,2,7,1.0,0,0,10,0,7,1.0,asocial
01JVR93SZ13KDJD015EVHBP1B2,11,3,7,1.0,0,0,8,1,7,1.0,asocial
01JVR93SZ13KDJD015EVHBP1B2,11,4,7,1.0,0,0,3,2,7,1.0,asocial
01JVR93SZ13KDJD015EVHBP1B2,11,5,7,1.0,0,0,0,1,7,1.0,asocial
01JVR93SZ13KDJD015EVHBP1B2,11,6,7,1.0,0,0,10,1,7,1.0,asocial
01JVR93SZ13KDJD015EVHBP1B2,11,7,7,1.0,10,0,10,0,7,1.0,asocial
01JVR93SZ13KDJD015EVHBP1B2,11,8,7,1.0,0,0,10,2,7,1.0,asocial
01JVR93SZ13KDJD015EVHBP1B2,11,9,7,1.0,0,0,4,0,7,1.0,asocial
01JVR93SZ13KDJD015EVHBP1B2,12,0,7,1.0,0,0,12,2,7,1.0,asocial
01JVR93SZ13KDJD015EVHBP1B2,12,1,7,1.0,0,0,25,2,7,1.0,asocial
01JVR93SZ13KDJD015EVHBP1B2,12,2,7,1.0,0,0,11,0,7,1.0,asocial
01JVR93SZ13KDJD015EVHBP1B2,12,3,7,1.0,0,0,9,1,7,1.0,asocial
01JVR93SZ13KDJD015EVHBP1B2,12,4,7,1.0,0,0,3,2,7,1.0,asocial
01JVR93SZ13KDJD015EVHBP1B2,12,5,7,1.0,0,0,1,1,7,1.0,asocial
01JVR93SZ13KDJD015EVHBP1B2,12,6,7,1.0,0,0,11,1,7,1.0,asocial
01JVR93SZ13KDJD015EVHBP1B2,12,7,7,1.0,11,0,11,0,7,1.0,asocial
01JVR93SZ13KDJD015EVHBP1B2,12,8,7,1.0,0,0,10,3,7,1.0,asocial
01JVR93SZ13KDJD015EVHBP1B2,12,9,7,1.0,0,0,4,0,7,1.0,asocial
01JVR93SZ13KDJD015EVHBP1B2,13,0,7,1.0,0,0,13,2,7,1.0,asocial
01JVR93SZ13KDJD015EVHBP1B2,13,1,7,1.0,0,0,28,2,7,1.0,asocial
01JVR93SZ13KDJD015EVHBP1B2,13,2,7,1.0,0,0,12,0,7,1.0,asocial
01JVR93SZ13KDJD015EVHBP1B2,13,3,7,1.0,0,0,9,1,7,1.0,asocial
01JVR93SZ13KDJD015EVHBP1B2,13,4,7,1.0,0,0,3,2,7,1.0,asocial
01JVR93SZ13KDJD015EVHBP1B2,13,5,7,1.0,0,0,2,1,7,1.0,asocial
01JVR93SZ13KDJD015EVHBP1B2,13,6,7,1.0,0,0,13,1,7,1.0,asocial
01JVR93SZ13KDJD015EVHBP1B2,13,7,7,1.0,12,0,12,0,7,1.0,asocial
01JVR93SZ13KDJD015EVHBP1B2,13,8,7,1.0,0,0,10,4,7,1.0,asocial
01JVR93SZ13KDJD015EVHBP1B2,13,9,7,1.0,0,0,4,0,7,1.0,asocial
01JVR93SZ13KDJD015EVHBP1B2,14,0,7,1.0,0,0,14,2,7,1.0,asocial
01JVR93SZ13KDJD015EVHBP1B2,14,1,7,1.0,0,0,32,2,7,1.0,asocial
01JVR93SZ13KDJD015EVHBP1B2,14,2,7,1.0,0,0,13,1,7,1.0,asocial
01JVR93SZ13KDJD015EVHBP1B2,14,3,7,1.0,0,0,9,1,7,1.0,asocial
01JVR93SZ13KDJD015EVHBP1B2,14,4,7,1.0,0,0,3,2,7,1.0,asocial
01JVR93SZ13KDJD015EVHBP1B2,14,5,7,1.0,0,0,2,1,7,1.0,asocial
01JVR93SZ13KDJD015EVHBP1B2,14,6,7,1.0,0,0,14,1,7,1.0,asocial
01JVR93SZ13KDJD015EVHBP1B2,14,7,7,1.0,13,0,13,0,7,1.0,asocial
01JVR93SZ13KDJD015EVHBP1B2,14,8,7,1.0,0,0,11,4,7,1.0,asocial
01JVR93SZ13KDJD015EVHBP1B2,14,9,7,1.0,0,0,4,0,7,1.0,asocial
01JVR93SZ13KDJD015EVHBP1B2,15,0,7,1.0,0,0,15,2,7,1.0,asocial
01JVR93SZ13KDJD015EVHBP1B2,15,1,7,1.0,0,0,36,2,7,1.0,asocial
01JVR93SZ13KDJD015EVHBP1B2,15,2,7,1.0,0,0,14,1,7,1.0,asocial
01JVR93SZ13KDJD015EVHBP1B2,15,3,7,1.0,0,0,9,1,7,1.0,asocial
01JVR93SZ13KDJD015EVHBP1B2,15,4,7,1.0,0,0,3,2,7,1.0,asocial
01JVR93SZ13KDJD015EVHBP1B2,15,5,7,1.0,0,0,2,1,7,1.0,asocial
01JVR93SZ13KDJD015EVHBP1B2,15,6,7,1.0,0,0,15,1,7,1.0,asocial
01JVR93SZ13KDJD015EVHBP1B2,15,7,7,1.0,14,0,15,0,7,1.0,asocial
01JVR93SZ13KDJD015EVHBP1B2,15,8,7,1.0,0,0,12,4,7,1.0,asocial
01JVR93SZ13KDJD015EVHBP1B2,15,9,7,1.0,0,0,4,0,7,1.0,asocial
01JVR93SZ13KDJD015EVHBP1B2,16,0,7,1.0,0,0,16,2,7,1.0,asocial
01JVR93SZ13KDJD015EVHBP1B2,16,1,7,1.0,0,0,39,2,7,1.0,asocial
01JVR93SZ13KDJD015EVHBP1B2,16,2,7,1.0,0,0,15,1,7,1.0,asocial
01JVR93SZ13KDJD015EVHBP1B2,16,3,7,1.0,0,0,9,1,7,1.0,asocial
01JVR93SZ13KDJD015EVHBP1B2,16,4,7,1.0,0,0,3,2,7,1.0,asocial
01JVR93SZ13KDJD015EVHBP1B2,16,5,7,1.0,0,0,2,1,7,1.0,asocial
01JVR93SZ13KDJD015EVHBP1B2,16,6,7,1.0,0,0,16,1,7,1.0,asocial
01JVR93SZ13KDJD015EVHBP1B2,16,7,7,1.0,15,0,16,0,7,1.0,asocial
01JVR93SZ13KDJD015EVHBP1B2,16,8,7,1.0,0,0,13,4,7,1.0,asocial
01JVR93SZ13KDJD015EVHBP1B2,16,9,7,1.0,0,0,6,0,7,1.0,asocial
01JVR93SZ13KDJD015EVHBP1B2,17,0,7,1.0,0,0,17,2,7,1.0,asocial
01JVR93SZ13KDJD015EVHBP1B2,17,1,7,1.0,0,0,41,3,7,1.0,asocial
01JVR93SZ13KDJD015EVHBP1B2,17,2,7,1.0,0,0,17,1,7,1.0,asocial
01JVR93SZ13KDJD015EVHBP1B2,17,3,7,1.0,0,0,9,1,7,1.0,asocial
01JVR93SZ13KDJD015EVHBP1B2,17,4,7,1.0,0,0,3,2,7,1.0,asocial
01JVR93SZ13KDJD015EVHBP1B2,17,5,7,1.0,0,0,2,1,7,1.0,asocial
01JVR93SZ13KDJD015EVHBP1B2,17,6,7,1.0,0,0,17,1,7,1.0,asocial
01JVR93SZ13KDJD015EVHBP1B2,17,7,7,1.0,16,0,17,0,7,1.0,asocial
01JVR93SZ13KDJD015EVHBP1B2,17,8,7,1.0,0,0,15,4,7,1.0,asocial
01JVR93SZ13KDJD015EVHBP1B2,17,9,7,1.0,0,0,6,0,7,1.0,asocial
01JVR93SZ13KDJD015EVHBP1B2,18,0,7,1.0,0,0,18,2,7,1.0,asocial
01JVR93SZ13KDJD015EVHBP1B2,18,1,7,1.0,0,0,44,3,7,1.0,asocial
01JVR93SZ13KDJD015EVHBP1B2,18,2,7,1.0,0,0,19,1,7,1.0,asocial
01JVR93SZ13KDJD015EVHBP1B2,18,3,7,1.0,0,0,9,1,7,1.0,asocial
01JVR93SZ13KDJD015EVHBP1B2,18,4,7,1.0,0,0,3,2,7,1.0,asocial
01JVR93SZ13KDJD015EVHBP1B2,18,5,7,1.0,0,0,2,1,7,1.0,asocial
01JVR93SZ13KDJD015EVHBP1B2,18,6,7,1.0,0,0,19,1,7,1.0,asocial
01JVR93SZ13KDJD015EVHBP1B2,18,7,7,1.0,17,0,18,0,7,1.0,asocial
01JVR93SZ13KDJD015EVHBP1B2,18,8,7,1.0,0,0,15,5,7,1.0,asocial
01JVR93SZ13KDJD015EVHBP1B2,18,9,7,1.0,0,0,6,0,7,1.0,asocial
01JVR93SZ13KDJD015EVHBP1B2,19,0,7,1.0,0,0,19,2,7,1.0,asocial
01JVR93SZ13KDJD015EVHBP1B2,19,1,7,1.0,0,0,46,4,7,1.0,asocial
01JVR93SZ13KDJD015EVHBP1B2,19,2,7,1.0,0,0,21,1,7,1.0,asocial
01JVR93SZ13KDJD015EVHBP1B2,19,3,7,1.0,0,0,9,1,7,1.0,asocial
01JVR93SZ13KDJD015EVHBP1B2,19,4,7,1.0,0,0,3,2,7,1.0,asocial
01JVR93SZ13KDJD015EVHBP1B2,19,5,7,1.0,0,0,2,1,7,1.0,asocial
01JVR93SZ13KDJD015EVHBP1B2,19,6,7,1.0,0,0,20,1,7,1.0,asocial
01JVR93SZ13KDJD015EVHBP1B2,19,7,7,1.0,18,0,19,1,7,1.0,asocial
01JVR93SZ13KDJD015EVHBP1B2,19,8,7,1.0,0,0,16,5,7,1.0,asocial
01JVR93SZ13KDJD015EVHBP1B2,19,9,7,1.0,0,0,6,0,7,1.0,asocial
01JVR93SZ13KDJD015EVHBP1B2,20,0,7,1.0,0,0,19,3,7,1.0,asocial
01JVR93SZ13KDJD015EVHBP1B2,20,1,7,1.0,0,0,49,4,7,1.0,asocial
01JVR93SZ13KDJD015EVHBP1B2,20,2,7,1.0,0,0,22,1,7,1.0,asocial
01JVR93SZ13KDJD015EVHBP1B2,20,3,7,1.0,0,0,10,1,7,1.0,asocial
01JVR93SZ13KDJD015EVHBP1B2,20,4,7,1.0,0,0,3,2,7,1.0,asocial
01JVR93SZ13KDJD015EVHBP1B2,20,5,7,1.0,0,0,2,1,7,1.0,asocial
01JVR93SZ13KDJD015EVHBP1B2,20,6,7,1.0,0,0,22,1,7,1.0,asocial
01JVR93SZ13KDJD015EVHBP1B2,20,7,7,1.0,19,0,20,1,7,1.0,asocial
01JVR93SZ13KDJD015EVHBP1B2,20,8,7,1.0,0,0,17,5,7,1.0,asocial
01JVR93SZ13KDJD015EVHBP1B2,20,9,7,1.0,0,0,6,0,7,1.0,asocial
01JVR93SZ13KDJD015EVHBP1B2,21,0,7,1.0,0,0,20,3,7,1.0,asocial
01JVR93SZ13KDJD015EVHBP1B2,21,1,7,1.0,0,0,52,4,7,1.0,asocial
01JVR93SZ13KDJD015EVHBP1B2,21,2,7,1.0,0,0,23,1,7,1.0,asocial
01JVR93SZ13KDJD015EVHBP1B2,21,3,7,1.0,0,0,11,1,7,1.0,asocial
01JVR93SZ13KDJD015EVHBP1B2,21,4,7,1.0,0,0,3,2,7,1.0,asocial
01JVR93SZ13KDJD015EVHBP1B2,21,5,7,1.0,0,0,2,1,7,1.0,asocial
01JVR93SZ13KDJD015EVHBP1B2,21,6,7,1.0,0,0,23,1,7,1.0,asocial
01JVR93SZ13KDJD015EVHBP1B2,21,7,7,1.0,20,0,21,1,7,1.0,asocial
01JVR93SZ13KDJD015EVHBP1B2,21,8,7,1.0,0,0,19,5,7,1.0,asocial
01JVR93SZ13KDJD015EVHBP1B2,21,9,7,1.0,0,0,6,0,7,1.0,asocial
01JVR93SZ13KDJD015EVHBP1B2,22,0,7,1.0,0,0,20,4,7,1.0,asocial
01JVR93SZ13KDJD015EVHBP1B2,22,1,7,1.0,0,0,55,4,7,1.0,asocial
01JVR93SZ13KDJD015EVHBP1B2,22,2,7,1.0,0,0,24,1,7,1.0,asocial
01JVR93SZ13KDJD015EVHBP1B2,22,3,7,1.0,0,0,12,1,7,1.0,asocial
01JVR93SZ13KDJD015EVHBP1B2,22,4,7,1.0,0,0,4,2,7,1.0,asocial
01JVR93SZ13KDJD015EVHBP1B2,22,5,7,1.0,0,0,2,1,7,1.0,asocial
01JVR93SZ13KDJD015EVHBP1B2,22,6,7,1.0,0,0,24,1,7,1.0,asocial
01JVR93SZ13KDJD015EVHBP1B2,22,7,7,1.0,21,0,22,1,7,1.0,asocial
01JVR93SZ13KDJD015EVHBP1B2,22,8,7,1.0,0,0,20,5,7,1.0,asocial
01JVR93SZ13KDJD015EVHBP1B2,22,9,7,1.0,0,0,6,0,7,1.0,asocial
01JVR93SZ13KDJD015EVHBP1B2,23,0,7,1.0,0,0,21,4,7,1.0,asocial
01JVR93SZ13KDJD015EVHBP1B2,23,1,7,1.0,0,0,58,4,7,1.0,asocial
01JVR93SZ13KDJD015EVHBP1B2,23,2,7,1.0,0,0,25,1,7,1.0,asocial
01JVR93SZ13KDJD015EVHBP1B2,23,3,7,1.0,0,0,13,1,7,1.0,asocial
01JVR93SZ13KDJD015EVHBP1B2,23,4,7,1.0,0,0,4,2,7,1.0,asocial
01JVR93SZ13KDJD015EVHBP1B2,23,5,7,1.0,0,0,3,1,7,1.0,asocial
01JVR93SZ13KDJD015EVHBP1B2,23,6,7,1.0,0,0,25,1,7,1.0,asocial
01JVR93SZ13KDJD015EVHBP1B2,23,7,7,1.0,22,0,23,1,7,1.0,asocial
01JVR93SZ13KDJD015EVHBP1B2,23,8,7,1.0,0,0,21,5,7,1.0,asocial
01JVR93SZ13KDJD015EVHBP1B2,23,9,7,1.0,0,0,6,0,7,1.0,asocial
01JVR93SZ13KDJD015EVHBP1B2,24,0,7,1.0,0,0,21,5,7,1.0,asocial
01JVR93SZ13KDJD015EVHBP1B2,24,1,7,1.0,0,0,61,4,7,1.0,asocial
01JVR93SZ13KDJD015EVHBP1B2,24,2,7,1.0,0,0,26,1,7,1.0,asocial
01JVR93SZ13KDJD015EVHBP1B2,24,3,7,1.0,0,0,14,2,7,1.0,asocial
01JVR93SZ13KDJD015EVHBP1B2,24,4,7,1.0,0,0,4,2,7,1.0,asocial
01JVR93SZ13KDJD015EVHBP1B2,24,5,7,1.0,0,0,3,1,7,1.0,asocial
01JVR93SZ13KDJD015EVHBP1B2,24,6,7,1.0,0,0,26,1,7,1.0,asocial
01JVR93SZ13KDJD015EVHBP1B2,24,7,7,1.0,23,0,24,1,7,1.0,asocial
01JVR93SZ13KDJD015EVHBP1B2,24,8,7,1.0,0,0,22,5,7,1.0,asocial
01JVR93SZ13KDJD015EVHBP1B2,24,9,7,1.0,0,0,6,0,7,1.0,asocial
01JVR93SZ13KDJD015EVHBP1B2,25,0,7,1.0,0,0,23,5,7,1.0,asocial
01JVR93SZ13KDJD015EVHBP1B2,25,1,7,1.0,0,0,64,4,7,1.0,asocial
01JVR93SZ13KDJD015EVHBP1B2,25,2,7,1.0,0,0,27,1,7,1.0,asocial
01JVR93SZ13KDJD015EVHBP1B2,25,3,7,1.0,0,0,15,2,7,1.0,asocial
01JVR93SZ13KDJD015EVHBP1B2,25,4,7,1.0,0,0,4,2,7,1.0,asocial
01JVR93SZ13KDJD015EVHBP1B2,25,5,7,1.0,0,0,3,1,7,1.0,asocial
01JVR93SZ13KDJD015EVHBP1B2,25,6,7,1.0,0,0,27,1,7,1.0,asocial
01JVR93SZ13KDJD015EVHBP1B2,25,7,7,1.0,24,0,25,1,7,1.0,asocial
01JVR93SZ13KDJD015EVHBP1B2,25,8,7,1.0,0,0,23,5,7,1.0,asocial
01JVR93SZ13KDJD015EVHBP1B2,25,9,7,1.0,0,0,6,0,7,1.0,asocial
01JVR93SZ13KDJD015EVHBP1B2,26,0,7,1.0,0,0,24,5,7,1.0,asocial
01JVR93SZ13KDJD015EVHBP1B2,26,1,7,1.0,0,0,69,4,7,1.0,asocial
01JVR93SZ13KDJD015EVHBP1B2,26,2,7,1.0,0,0,28,1,7,1.0,asocial
01JVR93SZ13KDJD015EVHBP1B2,26,3,7,1.0,0,0,15,2,7,1.0,asocial
01JVR93SZ13KDJD015EVHBP1B2,26,4,7,1.0,0,0,4,2,7,1.0,asocial
01JVR93SZ13KDJD015EVHBP1B2,26,5,7,1.0,0,0,3,1,7,1.0,asocial
01JVR93SZ13KDJD015EVHBP1B2,26,6,7,1.0,0,0,28,1,7,1.0,asocial
01JVR93SZ13KDJD015EVHBP1B2,26,7,7,1.0,25,0,26,1,7,1.0,asocial
01JVR93SZ13KDJD015EVHBP1B2,26,8,7,1.0,0,0,24,5,7,1.0,asocial
01JVR93SZ13KDJD015EVHBP1B2,26,9,7,1.0,0,0,6,0,7,1.0,asocial
01JVR93SZ13KDJD015EVHBP1B2,27,0,7,1.0,0,0,25,5,7,1.0,asocial
01JVR93SZ13KDJD015EVHBP1B2,27,1,7,1.0,0,0,72,5,7,1.0,asocial
01JVR93SZ13KDJD015EVHBP1B2,27,2,7,1.0,0,0,30,1,7,1.0,asocial
01JVR93SZ13KDJD015EVHBP1B2,27,3,7,1.0,0,0,15,2,7,1.0,asocial
01JVR93SZ13KDJD015EVHBP1B2,27,4,7,1.0,0,0,4,2,7,1.0,asocial
01JVR93SZ13KDJD015EVHBP1B2,27,5,7,1.0,0,0,3,1,7,1.0,asocial
01JVR93SZ13KDJD015EVHBP1B2,27,6,7,1.0,0,0,29,1,7,1.0,asocial
01JVR93SZ13KDJD015EVHBP1B2,27,7,7,1.0,26,0,27,1,7,1.0,asocial
01JVR93SZ13KDJD015EVHBP1B2,27,8,7,1.0,0,0,25,5,7,1.0,asocial
01JVR93SZ13KDJD015EVHBP1B2,27,9,7,1.0,0,0,6,0,7,1.0,asocial
01JVR93SZ13KDJD015EVHBP1B2,28,0,7,1.0,0,0,26,5,7,1.0,asocial
01JVR93SZ13KDJD015EVHBP1B2,28,1,7,1.0,0,0,75,5,7,1.0,asocial
01JVR93SZ13KDJD015EVHBP1B2,28,2,7,1.0,0,0,31,1,7,1.0,asocial
01JVR93SZ13KDJD015EVHBP1B2,28,3,7,1.0,0,0,15,2,7,1.0,asocial
01JVR93SZ13KDJD015EVHBP1B2,28,4,7,1.0,0,0,4,2,7,1.0,asocial
01JVR93SZ13KDJD015EVHBP1B2,28,5,7,1.0,0,0,3,1,7,1.0,asocial
01JVR93SZ13KDJD015EVHBP1B2,28,6,7,1.0,0,0,32,1,7,1.0,asocial
01JVR93SZ13KDJD015EVHBP1B2,28,7,7,1.0,27,0,28,1,7,1.0,asocial
01JVR93SZ13KDJD015EVHBP1B2,28,8,7,1.0,0,0,26,5,7,1.0,asocial
01JVR93SZ13KDJD015EVHBP1B2,28,9,7,1.0,0,0,6,0,7,1.0,asocial
01JVR93SZ13KDJD015EVHBP1B2,29,0,7,1.0,0,0,28,5,7,1.0,asocial
01JVR93SZ13KDJD015EVHBP1B2,29,1,7,1.0,0,0,78,5,7,1.0,asocial
01JVR93SZ13KDJD015EVHBP1B2,29,2,7,1.0,0,0,32,1,7,1.0,asocial
01JVR93SZ13KDJD015EVHBP1B2,29,3,7,1.0,0,0,15,2,7,1.0,asocial
01JVR93SZ13KDJD015EVHBP1B2,29,4,7,1.0,0,0,4,2,7,1.0,asocial
01JVR93SZ13KDJD015EVHBP1B2,29,5,7,1.0,0,0,3,1,7,1.0,asocial
01JVR93SZ13KDJD015EVHBP1B2,29,6,7,1.0,0,0,34,1,7,1.0,asocial
01JVR93SZ13KDJD015EVHBP1B2,29,7,7,1.0,28,0,29,1,7,1.0,asocial
01JVR93SZ13KDJD015EVHBP1B2,29,8,7,1.0,0,0,27,5,7,1.0,asocial
01JVR93SZ13KDJD015EVHBP1B2,29,9,7,1.0,0,0,6,0,7,1.0,asocial
01JVR93SZ13KDJD015EVHBP1B2,30,0,7,1.0,0,0,29,5,7,1.0,asocial
01JVR93SZ13KDJD015EVHBP1B2,30,1,7,1.0,0,0,81,5,7,1.0,asocial
01JVR93SZ13KDJD015EVHBP1B2,30,2,7,1.0,0,0,33,1,7,1.0,asocial
01JVR93SZ13KDJD015EVHBP1B2,30,3,7,1.0,0,0,15,2,7,1.0,asocial
01JVR93SZ13KDJD015EVHBP1B2,30,4,7,1.0,0,0,4,2,7,1.0,asocial
01JVR93SZ13KDJD015EVHBP1B2,30,5,7,1.0,0,0,3,1,7,1.0,asocial
01JVR93SZ13KDJD015EVHBP1B2,30,6,7,1.0,0,0,36,1,7,1.0,asocial
01JVR93SZ13KDJD015EVHBP1B2,30,7,7,1.0,29,0,30,1,7,1.0,asocial
01JVR93SZ13KDJD015EVHBP1B2,30,8,7,1.0,0,0,28,5,7,1.0,asocial
01JVR93SZ13KDJD015EVHBP1B2,30,9,7,1.0,0,0,7,0,7,1.0,asocial
01JVR93SZ13KDJD015EVHBP1B2,31,0,7,1.0,0,0,30,5,7,1.0,asocial
01JVR93SZ13KDJD015EVHBP1B2,31,1,7,1.0,0,0,83,6,7,1.0,asocial
01JVR93SZ13KDJD015EVHBP1B2,31,2,7,1.0,0,0,34,1,7,1.0,asocial
01JVR93SZ13KDJD015EVHBP1B2,31,3,7,1.0,0,0,15,2,7,1.0,asocial
01JVR93SZ13KDJD015EVHBP1B2,31,4,7,1.0,0,0,4,2,7,1.0,asocial
01JVR93SZ13KDJD015EVHBP1B2,31,5,7,1.0,0,0,3,1,7,1.0,asocial
01JVR93SZ13KDJD015EVHBP1B2,31,6,7,1.0,0,0,38,1,7,1.0,asocial
01JVR93SZ13KDJD015EVHBP1B2,31,7,7,1.0,30,0,31,1,7,1.0,asocial
01JVR93SZ13KDJD015EVHBP1B2,31,8,7,1.0,0,0,29,6,7,1.0,asocial
01JVR93SZ13KDJD015EVHBP1B2,31,9,7,1.0,0,0,7,0,7,1.0,asocial
01JVR93SZ13KDJD015EVHBP1B2,32,0,7,1.0,0,0,31,5,7,1.0,asocial
01JVR93SZ13KDJD015EVHBP1B2,32,1,7,1.0,0,0,85,7,7,1.0,asocial
01JVR93SZ13KDJD015EVHBP1B2,32,2,7,1.0,0,0,35,1,7,1.0,asocial
01JVR93SZ13KDJD015EVHBP1B2,32,3,7,1.0,0,0,16,2,7,1.0,asocial
01JVR93SZ13KDJD015EVHBP1B2,32,4,7,1.0,0,0,4,2,7,1.0,asocial
01JVR93SZ13KDJD015EVHBP1B2,32,5,7,1.0,0,0,3,1,7,1.0,asocial
01JVR93SZ13KDJD015EVHBP1B2,32,6,7,1.0,0,0,40,1,7,1.0,asocial
01JVR93SZ13KDJD015EVHBP1B2,32,7,7,1.0,31,0,32,1,7,1.0,asocial
01JVR93SZ13KDJD015EVHBP1B2,32,8,7,1.0,0,0,30,6,7,1.0,asocial
01JVR93SZ13KDJD015EVHBP1B2,32,9,7,1.0,0,0,7,0,7,1.0,asocial
01JVR93SZ13KDJD015EVHBP1B2,33,0,7,1.0,0,0,32,5,7,1.0,asocial
01JVR93SZ13KDJD015EVHBP1B2,33,1,7,1.0,0,0,87,8,7,1.0,asocial
01JVR93SZ13KDJD015EVHBP1B2,33,2,7,1.0,0,0,35,2,7,1.0,asocial
01JVR93SZ13KDJD015EVHBP1B2,33,3,7,1.0,0,0,16,2,7,1.0,asocial
01JVR93SZ13KDJD015EVHBP1B2,33,4,7,1.0,0,0,4,2,7,1.0,asocial
01JVR93SZ13KDJD015EVHBP1B2,33,5,7,1.0,0,0,3,1,7,1.0,asocial
01JVR93SZ13KDJD015EVHBP1B2,33,6,7,1.0,0,0,40,3,7,1.0,asocial
01JVR93SZ13KDJD015EVHBP1B2,33,7,7,1.0,32,0,33,1,7,1.0,asocial
01JVR93SZ13KDJD015EVHBP1B2,33,8,7,1.0,0,0,30,7,7,1.0,asocial
01JVR93SZ13KDJD015EVHBP1B2,33,9,7,1.0,0,0,8,0,7,1.0,asocial
01JVR93SZ13KDJD015EVHBP1B2,34,0,7,1.0,0,0,33,5,7,1.0,asocial
01JVR93SZ13KDJD015EVHBP1B2,34,1,7,1.0,0,0,90,8,7,1.0,asocial
01JVR93SZ13KDJD015EVHBP1B2,34,2,7,1.0,0,0,35,3,7,1.0,asocial
01JVR93SZ13KDJD015EVHBP1B2,34,3,7,1.0,0,0,16,2,7,1.0,asocial
01JVR93SZ13KDJD015EVHBP1B2,34,4,7,1.0,0,0,4,2,7,1.0,asocial
01JVR93SZ13KDJD015EVHBP1B2,34,5,7,1.0,0,0,5,1,7,1.0,asocial
01JVR93SZ13KDJD015EVHBP1B2,34,6,7,1.0,0,0,41,3,7,1.0,asocial
01JVR93SZ13KDJD015EVHBP1B2,34,7,7,1.0,33,0,34,1,7,1.0,asocial
01JVR93SZ13KDJD015EVHBP1B2,34,8,7,1.0,0,0,31,7,7,1.0,asocial
01JVR93SZ13KDJD015EVHBP1B2,34,9,7,1.0,0,0,8,0,7,1.0,asocial
01JVR93SZ13KDJD015EVHBP1B2,35,0,7,1.0,0,0,34,5,7,1.0,asocial
01JVR93SZ13KDJD015EVHBP1B2,35,1,7,1.0,0,0,94,8,7,1.0,asocial
01JVR93SZ13KDJD015EVHBP1B2,35,2,7,1.0,0,0,36,3,7,1.0,asocial
01JVR93SZ13KDJD015EVHBP1B2,35,3,7,1.0,0,0,16,2,7,1.0,asocial
01JVR93SZ13KDJD015EVHBP1B2,35,4,7,1.0,0,0,4,2,7,1.0,asocial
01JVR93SZ13KDJD015EVHBP1B2,35,5,7,1.0,0,0,6,1,7,1.0,asocial
01JVR93SZ13KDJD015EVHBP1B2,35,6,7,1.0,0,0,42,3,7,1.0,asocial
01JVR93SZ13KDJD015EVHBP1B2,35,7,7,1.0,34,0,35,1,7,1.0,asocial
01JVR93SZ13KDJD015EVHBP1B2,35,8,7,1.0,0,0,31,8,7,1.0,asocial
01JVR93SZ13KDJD015EVHBP1B2,35,9,7,1.0,0,0,8,0,7,1.0,asocial
01JVR93SZ13KDJD015EVHBP1B2,36,0,7,1.0,0,0,35,5,7,1.0,asocial
01JVR93SZ13KDJD015EVHBP1B2,36,1,7,1.0,0,0,96,8,7,1.0,asocial
01JVR93SZ13KDJD015EVHBP1B2,36,2,7,1.0,0,0,36,4,7,1.0,asocial
01JVR93SZ13KDJD015EVHBP1B2,36,3,7,1.0,0,0,16,2,7,1.0,asocial
01JVR93SZ13KDJD015EVHBP1B2,36,4,7,1.0,0,0,5,2,7,1.0,asocial
01JVR93SZ13KDJD015EVHBP1B2,36,5,7,1.0,0,0,7,1,7,1.0,asocial
01JVR93SZ13KDJD015EVHBP1B2,36,6,7,1.0,0,0,43,3,7,1.0,asocial
01JVR93SZ13KDJD015EVHBP1B2,36,7,7,1.0,35,0,36,1,7,1.0,asocial
01JVR93SZ13KDJD015EVHBP1B2,36,8,7,1.0,0,0,32,8,7,1.0,asocial
01JVR93SZ13KDJD015EVHBP1B2,36,9,7,1.0,0,0,9,0,7,1.0,asocial
01JVR93SZ13KDJD015EVHBP1B2,37,0,7,1.0,0,0,36,5,7,1.0,asocial
01JVR93SZ13KDJD015EVHBP1B2,37,1,7,1.0,0,0,98,8,7,1.0,asocial
01JVR93SZ13KDJD015EVHBP1B2,37,2,7,1.0,0,0,38,4,7,1.0,asocial
01JVR93SZ13KDJD015EVHBP1B2,37,3,7,1.0,0,0,16,2,7,1.0,asocial
01JVR93SZ13KDJD015EVHBP1B2,37,4,7,1.0,0,0,6,2,7,1.0,asocial
01JVR93SZ13KDJD015EVHBP1B2,37,5,7,1.0,0,0,8,1,7,1.0,asocial
01JVR93SZ13KDJD015EVHBP1B2,37,6,7,1.0,0,0,44,3,7,1.0,asocial
01JVR93SZ13KDJD015EVHBP1B2,37,7,7,1.0,36,0,37,1,7,1.0,asocial
01JVR93SZ13KDJD015EVHBP1B2,37,8,7,1.0,0,0,33,8,7,1.0,asocial
01JVR93SZ13KDJD015EVHBP1B2,37,9,7,1.0,0,0,9,0,7,1.0,asocial
01JVR93SZ13KDJD015EVHBP1B2,38,0,7,1.0,0,0,37,5,7,1.0,asocial
01JVR93SZ13KDJD015EVHBP1B2,38,1,7,1.0,0,0,100,8,7,1.0,asocial
01JVR93SZ13KDJD015EVHBP1B2,38,2,7,1.0,0,0,39,4,7,1.0,asocial
01JVR93SZ13KDJD015EVHBP1B2,38,3,7,1.0,0,0,16,2,7,1.0,asocial
01JVR93SZ13KDJD015EVHBP1B2,38,4,7,1.0,0,0,7,2,7,1.0,asocial
01JVR93SZ13KDJD015EVHBP1B2,38,5,7,1.0,0,0,9,1,7,1.0,asocial
01JVR93SZ13KDJD015EVHBP1B2,38,6,7,1.0,0,0,45,4,7,1.0,asocial
01JVR93SZ13KDJD015EVHBP1B2,38,7,7,1.0,37,0,38,1,7,1.0,asocial
01JVR93SZ13KDJD015EVHBP1B2,38,8,7,1.0,0,0,34,8,7,1.0,asocial
01JVR93SZ13KDJD015EVHBP1B2,38,9,7,1.0,0,0,9,0,7,1.0,asocial
01JVR93SZ13KDJD015EVHBP1B2,39,0,7,1.0,0,0,38,5,7,1.0,asocial
01JVR93SZ13KDJD015EVHBP1B2,39,1,7,1.0,0,0,101,9,7,1.0,asocial
01JVR93SZ13KDJD015EVHBP1B2,39,2,7,1.0,0,0,40,4,7,1.0,asocial
01JVR93SZ13KDJD015EVHBP1B2,39,3,7,1.0,0,0,16,2,7,1.0,asocial
01JVR93SZ13KDJD015EVHBP1B2,39,4,7,1.0,0,0,8,2,7,1.0,asocial
01JVR93SZ13KDJD015EVHBP1B2,39,5,7,1.0,0,0,10,1,7,1.0,asocial
01JVR93SZ13KDJD015EVHBP1B2,39,6,7,1.0,0,0,46,4,7,1.0,asocial
01JVR93SZ13KDJD015EVHBP1B2,39,7,7,1.0,38,0,39,1,7,1.0,asocial
01JVR93SZ13KDJD015EVHBP1B2,39,8,7,1.0,0,0,34,8,7,1.0,asocial
01JVR93SZ13KDJD015EVHBP1B2,39,9,7,1.0,0,0,9,1,7,1.0,asocial
01JVR93SZ13KDJD015EVHBP1B2,40,0,7,1.0,0,0,39,5,7,1.0,asocial
01JVR93SZ13KDJD015EVHBP1B2,40,1,7,1.0,0,0,103,9,7,1.0,asocial
01JVR93SZ13KDJD015EVHBP1B2,40,2,7,1.0,0,0,42,4,7,1.0,asocial
01JVR93SZ13KDJD015EVHBP1B2,40,3,7,1.0,0,0,16,2,7,1.0,asocial
01JVR93SZ13KDJD015EVHBP1B2,40,4,7,1.0,0,0,9,2,7,1.0,asocial
01JVR93SZ13KDJD015EVHBP1B2,40,5,7,1.0,0,0,11,1,7,1.0,asocial
01JVR93SZ13KDJD015EVHBP1B2,40,6,7,1.0,0,0,47,4,7,1.0,asocial
01JVR93SZ13KDJD015EVHBP1B2,40,7,7,1.0,39,0,40,1,7,1.0,asocial
01JVR93SZ13KDJD015EVHBP1B2,40,8,7,1.0,0,0,35,8,7,1.0,asocial
01JVR93SZ13KDJD015EVHBP1B2,40,9,7,1.0,0,0,9,1,7,1.0,asocial
01JVR93SZ13KDJD015EVHBP1B2,41,0,7,1.0,0,0,40,5,7,1.0,asocial
01JVR93SZ13KDJD015EVHBP1B2,41,1,7,1.0,0,0,105,9,7,1.0,asocial
01JVR93SZ13KDJD015EVHBP1B2,41,2,7,1.0,0,0,43,4,7,1.0,asocial
01JVR93SZ13KDJD015EVHBP1B2,41,3,7,1.0,0,0,16,2,7,1.0,asocial
01JVR93SZ13KDJD015EVHBP1B2,41,4,7,1.0,0,0,10,2,7,1.0,asocial
01JVR93SZ13KDJD015EVHBP1B2,41,5,7,1.0,0,0,13,1,7,1.0,asocial
01JVR93SZ13KDJD015EVHBP1B2,41,6,7,1.0,0,0,48,4,7,1.0,asocial
01JVR93SZ13KDJD015EVHBP1B2,41,7,7,1.0,40,0,41,1,7,1.0,asocial
01JVR93SZ13KDJD015EVHBP1B2,41,8,7,1.0,0,0,36,8,7,1.0,asocial
01JVR93SZ13KDJD015EVHBP1B2,41,9,7,1.0,0,0,9,1,7,1.0,asocial
01JVR93SZ13KDJD015EVHBP1B2,42,0,7,1.0,0,0,41,5,7,1.0,asocial
01JVR93SZ13KDJD015EVHBP1B2,42,1,7,1.0,0,0,107,9,7,1.0,asocial
01JVR93SZ13KDJD015EVHBP1B2,42,2,7,1.0,0,0,43,5,7,1.0,asocial
01JVR93SZ13KDJD015EVHBP1B2,42,3,7,1.0,0,0,16,2,7,1.0,asocial
01JVR93SZ13KDJD015EVHBP1B2,42,4,7,1.0,0,0,11,2,7,1.0,asocial
01JVR93SZ13KDJD015EVHBP1B2,42,5,7,1.0,0,0,13,2,7,1.0,asocial
01JVR93SZ13KDJD015EVHBP1B2,42,6,7,1.0,0,0,50,4,7,1.0,asocial
01JVR93SZ13KDJD015EVHBP1B2,42,7,7,1.0,41,0,42,1,7,1.0,asocial
01JVR93SZ13KDJD015EVHBP1B2,42,8,7,1.0,0,0,37,8,7,1.0,asocial
01JVR93SZ13KDJD015EVHBP1B2,42,9,7,1.0,0,0,9,1,7,1.0,asocial
01JVR93SZ13KDJD015EVHBP1B2,43,0,7,0.0,0,0,44,5,7,1.0,asocial
01JVR93SZ13KDJD015EVHBP1B2,43,1,7,0.0,0,0,109,9,7,1.0,asocial
01JVR93SZ13KDJD015EVHBP1B2,43,2,7,0.0,0,0,43,6,7,1.0,asocial
01JVR93SZ13KDJD015EVHBP1B2,43,3,7,0.0,0,0,16,2,7,1.0,asocial
01JVR93SZ13KDJD015EVHBP1B2,43,4,7,0.0,0,0,12,2,7,1.0,asocial
01JVR93SZ13KDJD015EVHBP1B2,43,5,7,0.0,0,0,13,2,7,1.0,asocial
01JVR93SZ13KDJD015EVHBP1B2,43,6,7,0.0,0,0,50,5,7,1.0,asocial
01JVR93SZ13KDJD015EVHBP1B2,43,7,7,0.0,42,0,43,1,7,1.0,asocial
01JVR93SZ13KDJD015EVHBP1B2,43,8,7,0.0,0,0,38,8,7,1.0,asocial
01JVR93SZ13KDJD015EVHBP1B2,43,9,7,0.0,0,0,9,1,7,1.0,asocial
01JVR93SZ13KDJD015EVHBP1B2,44,0,7,1.0,0,0,46,5,7,0.0,asocial
01JVR93SZ13KDJD015EVHBP1B2,44,1,7,1.0,0,0,111,9,7,0.0,asocial
01JVR93SZ13KDJD015EVHBP1B2,44,2,7,1.0,0,0,45,6,7,0.0,asocial
01JVR93SZ13KDJD015EVHBP1B2,44,3,7,1.0,0,0,16,2,7,0.0,asocial
01JVR93SZ13KDJD015EVHBP1B2,44,4,7,1.0,0,0,13,2,7,0.0,asocial
01JVR93SZ13KDJD015EVHBP1B2,44,5,7,1.0,0,0,13,2,7,0.0,asocial
01JVR93SZ13KDJD015EVHBP1B2,44,6,7,1.0,0,0,51,5,7,0.0,asocial
01JVR93SZ13KDJD015EVHBP1B2,44,7,7,1.0,42,1,43,2,7,0.0,asocial
01JVR93SZ13KDJD015EVHBP1B2,44,8,7,1.0,0,0,39,8,7,0.0,asocial
01JVR93SZ13KDJD015EVHBP1B2,44,9,7,1.0,0,0,9,1,7,0.0,asocial
01JVR93SZ13KDJD015EVHBP1B2,45,0,7,1.0,0,0,46,7,7,1.0,asocial
01JVR93SZ13KDJD015EVHBP1B2,45,1,7,1.0,0,0,113,9,7,1.0,asocial
01JVR93SZ13KDJD015EVHBP1B2,45,2,7,1.0,0,0,46,6,7,1.0,asocial
01JVR93SZ13KDJD015EVHBP1B2,45,3,7,1.0,0,0,16,2,7,1.0,asocial
01JVR93SZ13KDJD015EVHBP1B2,45,4,7,1.0,0,0,13,3,7,1.0,asocial
01JVR93SZ13KDJD015EVHBP1B2,45,5,7,1.0,0,0,13,2,7,1.0,asocial
01JVR93SZ13KDJD015EVHBP1B2,45,6,7,1.0,0,0,52,5,7,1.0,asocial
01JVR93SZ13KDJD015EVHBP1B2,45,7,7,1.0,43,1,44,2,7,1.0,asocial
01JVR93SZ13KDJD015EVHBP1B2,45,8,7,1.0,0,0,40,8,7,1.0,asocial
01JVR93SZ13KDJD015EVHBP1B2,45,9,7,1.0,0,0,10,1,7,1.0,asocial
01JVR93SZ13KDJD015EVHBP1B2,46,0,7,1.0,0,0,47,7,7,1.0,asocial
01JVR93SZ13KDJD015EVHBP1B2,46,1,7,1.0,0,0,115,9,7,1.0,asocial
01JVR93SZ13KDJD015EVHBP1B2,46,2,7,1.0,0,0,47,6,7,1.0,asocial
01JVR93SZ13KDJD015EVHBP1B2,46,3,7,1.0,0,0,17,2,7,1.0,asocial
01JVR93SZ13KDJD015EVHBP1B2,46,4,7,1.0,0,0,13,4,7,1.0,asocial
01JVR93SZ13KDJD015EVHBP1B2,46,5,7,1.0,0,0,13,2,7,1.0,asocial
01JVR93SZ13KDJD015EVHBP1B2,46,6,7,1.0,0,0,53,6,7,1.0,asocial
01JVR93SZ13KDJD015EVHBP1B2,46,7,7,1.0,44,1,45,2,7,1.0,asocial
01JVR93SZ13KDJD015EVHBP1B2,46,8,7,1.0,0,0,41,8,7,1.0,asocial
01JVR93SZ13KDJD015EVHBP1B2,46,9,7,1.0,0,0,10,1,7,1.0,asocial
01JVR93SZ13KDJD015EVHBP1B2,47,0,7,1.0,0,0,48,7,7,1.0,asocial
01JVR93SZ13KDJD015EVHBP1B2,47,1,7,1.0,0,0,117,9,7,1.0,asocial
01JVR93SZ13KDJD015EVHBP1B2,47,2,7,1.0,0,0,49,6,7,1.0,asocial
01JVR93SZ13KDJD015EVHBP1B2,47,3,7,1.0,0,0,17,2,7,1.0,asocial
01JVR93SZ13KDJD015EVHBP1B2,47,4,7,1.0,0,0,13,4,7,1.0,asocial
01JVR93SZ13KDJD015EVHBP1B2,47,5,7,1.0,0,0,14,2,7,1.0,asocial
01JVR93SZ13KDJD015EVHBP1B2,47,6,7,1.0,0,0,54,6,7,1.0,asocial
01JVR93SZ13KDJD015EVHBP1B2,47,7,7,1.0,45,1,46,2,7,1.0,asocial
01JVR93SZ13KDJD015EVHBP1B2,47,8,7,1.0,0,0,43,8,7,1.0,asocial
01JVR93SZ13KDJD015EVHBP1B2,47,9,7,1.0,0,0,10,1,7,1.0,asocial
01JVR93SZ13KDJD015EVHBP1B2,48,0,7,1.0,0,0,49,7,7,1.0,asocial
01JVR93SZ13KDJD015EVHBP1B2,48,1,7,1.0,0,0,120,9,7,1.0,asocial
01JVR93SZ13KDJD015EVHBP1B2,48,2,7,1.0,0,0,51,6,7,1.0,asocial
01JVR93SZ13KDJD015EVHBP1B2,48,3,7,1.0,0,0,17,2,7,1.0,asocial
01JVR93SZ13KDJD015EVHBP1B2,48,4,7,1.0,0,0,13,4,7,1.0,asocial
01JVR93SZ13KDJD015EVHBP1B2,48,5,7,1.0,0,0,14,2,7,1.0,asocial
01JVR93SZ13KDJD015EVHBP1B2,48,6,7,1.0,0,0,55,6,7,1.0,asocial
01JVR93SZ13KDJD015EVHBP1B2,48,7,7,1.0,46,1,47,2,7,1.0,asocial
01JVR93SZ13KDJD015EVHBP1B2,48,8,7,1.0,0,0,45,8,7,1.0,asocial
01JVR93SZ13KDJD015EVHBP1B2,48,9,7,1.0,0,0,10,1,7,1.0,asocial
01JVR93SZ13KDJD015EVHBP1B2,49,0,7,1.0,0,0,50,7,7,1.0,asocial
01JVR93SZ13KDJD015EVHBP1B2,49,1,7,1.0,0,0,122,9,7,1.0,asocial
01JVR93SZ13KDJD015EVHBP1B2,49,2,7,1.0,0,0,53,7,7,1.0,asocial
01JVR93SZ13KDJD015EVHBP1B2,49,3,7,1.0,0,0,17,2,7,1.0,asocial
01JVR93SZ13KDJD015EVHBP1B2,49,4,7,1.0,0,0,13,4,7,1.0,asocial
01JVR93SZ13KDJD015EVHBP1B2,49,5,7,1.0,0,0,14,2,7,1.0,asocial
01JVR93SZ13KDJD015EVHBP1B2,49,6,7,1.0,0,0,56,6,7,1.0,asocial
01JVR93SZ13KDJD015EVHBP1B2,49,7,7,1.0,47,1,48,2,7,1.0,asocial
01JVR93SZ13KDJD015EVHBP1B2,49,8,7,1.0,0,0,47,8,7,1.0,asocial
01JVR93SZ13KDJD015EVHBP1B2,49,9,7,1.0,0,0,10,1,7,1.0,asocial
01JVR93SZ13KDJD015EVHBP1B2,50,0,7,1.0,0,0,52,7,7,1.0,asocial
01JVR93SZ13KDJD015EVHBP1B2,50,1,7,1.0,0,0,124,9,7,1.0,asocial
01JVR93SZ13KDJD015EVHBP1B2,50,2,7,1.0,0,0,55,7,7,1.0,asocial
01JVR93SZ13KDJD015EVHBP1B2,50,3,7,1.0,0,0,17,2,7,1.0,asocial
01JVR93SZ13KDJD015EVHBP1B2,50,4,7,1.0,0,0,13,4,7,1.0,asocial
01JVR93SZ13KDJD015EVHBP1B2,50,5,7,1.0,0,0,14,2,7,1.0,asocial
01JVR93SZ13KDJD015EVHBP1B2,50,6,7,1.0,0,0,57,6,7,1.0,asocial
01JVR93SZ13KDJD015EVHBP1B2,50,7,7,1.0,48,1,49,2,7,1.0,asocial
01JVR93SZ13KDJD015EVHBP1B2,50,8,7,1.0,0,0,49,8,7,1.0,asocial
01JVR93SZ13KDJD015EVHBP1B2,50,9,7,1.0,0,0,10,1,7,1.0,asocial
01JVR93SZ13KDJD015EVHBP1B2,51,0,7,1.0,0,0,53,7,7,1.0,asocial
01JVR93SZ13KDJD015EVHBP1B2,51,1,7,1.0,0,0,125,10,7,1.0,asocial
01JVR93SZ13KDJD015EVHBP1B2,51,2,7,1.0,0,0,57,7,7,1.0,asocial
01JVR93SZ13KDJD015EVHBP1B2,51,3,7,1.0,0,0,17,2,7,1.0,asocial
01JVR93SZ13KDJD015EVHBP1B2,51,4,7,1.0,0,0,13,4,7,1.0,asocial
01JVR93SZ13KDJD015EVHBP1B2,51,5,7,1.0,0,0,15,2,7,1.0,asocial
01JVR93SZ13KDJD015EVHBP1B2,51,6,7,1.0,0,0,58,6,7,1.0,asocial
01JVR93SZ13KDJD015EVHBP1B2,51,7,7,1.0,49,1,50,2,7,1.0,asocial
01JVR93SZ13KDJD015EVHBP1B2,51,8,7,1.0,0,0,51,8,7,1.0,asocial
01JVR93SZ13KDJD015EVHBP1B2,51,9,7,1.0,0,0,10,1,7,1.0,asocial
01JVR941HYYMM3C2H61Y78CXT6,1,0,9,1.0,0,0,0,0,-1,,asocial
01JVR941HYYMM3C2H61Y78CXT6,1,1,9,1.0,0,0,0,0,-1,,asocial
01JVR941HYYMM3C2H61Y78CXT6,1,2,9,1.0,0,0,0,0,-1,,asocial
01JVR941HYYMM3C2H61Y78CXT6,1,3,9,1.0,0,0,0,0,-1,,asocial
01JVR941HYYMM3C2H61Y78CXT6,1,4,9,1.0,0,0,0,0,-1,,asocial
01JVR941HYYMM3C2H61Y78CXT6,1,5,9,1.0,0,0,0,0,-1,,asocial
01JVR941HYYMM3C2H61Y78CXT6,1,6,9,1.0,0,0,0,0,-1,,asocial
01JVR941HYYMM3C2H61Y78CXT6,1,7,9,1.0,0,0,0,0,-1,,asocial
01JVR941HYYMM3C2H61Y78CXT6,1,8,9,1.0,0,0,0,0,-1,,asocial
01JVR941HYYMM3C2H61Y78CXT6,1,9,9,1.0,0,0,0,0,-1,,asocial
01JVR941HYYMM3C2H61Y78CXT6,2,0,9,1.0,0,0,1,0,9,1.0,asocial
01JVR941HYYMM3C2H61Y78CXT6,2,1,9,1.0,0,0,1,0,9,1.0,asocial
01JVR941HYYMM3C2H61Y78CXT6,2,2,9,1.0,0,0,1,0,9,1.0,asocial
01JVR941HYYMM3C2H61Y78CXT6,2,3,9,1.0,0,0,1,0,9,1.0,asocial
01JVR941HYYMM3C2H61Y78CXT6,2,4,9,1.0,0,0,1,0,9,1.0,asocial
01JVR941HYYMM3C2H61Y78CXT6,2,5,9,1.0,0,0,0,1,9,1.0,asocial
01JVR941HYYMM3C2H61Y78CXT6,2,6,9,1.0,0,0,1,0,9,1.0,asocial
01JVR941HYYMM3C2H61Y78CXT6,2,7,9,1.0,0,0,1,0,9,1.0,asocial
01JVR941HYYMM3C2H61Y78CXT6,2,8,9,1.0,0,0,1,0,9,1.0,asocial
01JVR941HYYMM3C2H61Y78CXT6,2,9,9,1.0,1,0,1,0,9,1.0,asocial
01JVR941HYYMM3C2H61Y78CXT6,3,0,9,1.0,0,0,2,0,9,1.0,asocial
01JVR941HYYMM3C2H61Y78CXT6,3,1,9,1.0,0,0,3,0,9,1.0,asocial
01JVR941HYYMM3C2H61Y78CXT6,3,2,9,1.0,0,0,2,0,9,1.0,asocial
01JVR941HYYMM3C2H61Y78CXT6,3,3,9,1.0,0,0,2,0,9,1.0,asocial
01JVR941HYYMM3C2H61Y78CXT6,3,4,9,1.0,0,0,1,1,9,1.0,asocial
01JVR941HYYMM3C2H61Y78CXT6,3,5,9,1.0,0,0,0,1,9,1.0,asocial
01JVR941HYYMM3C2H61Y78CXT6,3,6,9,1.0,0,0,2,0,9,1.0,asocial
01JVR941HYYMM3C2H61Y78CXT6,3,7,9,1.0,0,0,2,0,9,1.0,asocial
01JVR941HYYMM3C2H61Y78CXT6,3,8,9,1.0,0,0,2,0,9,1.0,asocial
01JVR941HYYMM3C2H61Y78CXT6,3,9,9,1.0,2,0,2,0,9,1.0,asocial
01JVR941HYYMM3C2H61Y78CXT6,4,0,3,1.0,0,0,2,2,9,1.0,asocial
01JVR941HYYMM3C2H61Y78CXT6,4,1,3,1.0,0,0,3,0,9,1.0,asocial
01JVR941HYYMM3C2H61Y78CXT6,4,2,3,1.0,0,0,3,0,9,1.0,asocial
01JVR941HYYMM3C2H61Y78CXT6,4,3,3,1.0,0,0,3,0,9,1.0,asocial
01JVR941HYYMM3C2H61Y78CXT6,4,4,3,1.0,0,0,2,1,9,1.0,asocial
01JVR941HYYMM3C2H61Y78CXT6,4,5,3,1.0,0,0,0,1,9,1.0,asocial
01JVR941HYYMM3C2H61Y78CXT6,4,6,3,1.0,0,0,3,0,9,1.0,asocial
01JVR941HYYMM3C2H61Y78CXT6,4,7,3,1.0,0,0,3,0,9,1.0,asocial
01JVR941HYYMM3C2H61Y78CXT6,4,8,3,1.0,0,0,2,1,9,1.0,asocial
01JVR941HYYMM3C2H61Y78CXT6,4,9,3,1.0,3,0,3,0,9,1.0,asocial
01JVR941HYYMM3C2H61Y78CXT6,5,0,6,1.0,0,0,3,2,3,1.0,asocial
01JVR941HYYMM3C2H61Y78CXT6,5,1,6,1.0,0,0,6,0,3,1.0,asocial
01JVR941HYYMM3C2H61Y78CXT6,5,2,6,1.0,0,0,4,0,3,1.0,asocial
01JVR941HYYMM3C2H61Y78CXT6,5,3,6,1.0,1,0,5,0,3,1.0,asocial
01JVR941HYYMM3C2H61Y78CXT6,5,4,6,1.0,0,0,2,1,3,1.0,asocial
01JVR941HYYMM3C2H61Y78CXT6,5,5,6,1.0,0,0,0,1,3,1.0,asocial
01JVR941HYYMM3C2H61Y78CXT6,5,6,6,1.0,0,0,4,0,3,1.0,asocial
01JVR941HYYMM3C2H61Y78CXT6,5,7,6,1.0,0,0,4,0,3,1.0,asocial
01JVR941HYYMM3C2H61Y78CXT6,5,8,6,1.0,0,0,3,1,3,1.0,asocial
01JVR941HYYMM3C2H61Y78CXT6,5,9,6,1.0,3,0,3,0,3,1.0,asocial
01JVR941HYYMM3C2H61Y78CXT6,6,0,8,1.0,0,0,4,2,6,1.0,asocial
01JVR941HYYMM3C2H61Y78CXT6,6,1,8,1.0,0,0,9,0,6,1.0,asocial
01JVR941HYYMM3C2H61Y78CXT6,6,2,8,1.0,0,0,5,0,6,1.0,asocial
01JVR941HYYMM3C2H61Y78CXT6,6,3,8,1.0,1,0,6,0,6,1.0,asocial
01JVR941HYYMM3C2H61Y78CXT6,6,4,8,1.0,0,0,2,1,6,1.0,asocial
01JVR941HYYMM3C2H61Y78CXT6,6,5,8,1.0,0,0,0,1,6,1.0,asocial
01JVR941HYYMM3C2H61Y78CXT6,6,6,8,1.0,1,0,6,0,6,1.0,asocial
01JVR941HYYMM3C2H61Y78CXT6,6,7,8,1.0,0,0,5,0,6,1.0,asocial
01JVR941HYYMM3C2H61Y78CXT6,6,8,8,1.0,0,0,4,1,6,1.0,asocial
01JVR941HYYMM3C2H61Y78CXT6,6,9,8,1.0,3,0,3,0,6,1.0,asocial
01JVR941HYYMM3C2H61Y78CXT6,7,0,9,1.0,0,0,5,2,8,1.0,asocial
01JVR941HYYMM3C2H61Y78CXT6,7,1,9,1.0,0,0,11,1,8,1.0,asocial
01JVR941HYYMM3C2H61Y78CXT6,7,2,9,1.0,0,0,6,0,8,1.0,asocial
01JVR941HYYMM3C2H61Y78CXT6,7,3,9,1.0,1,0,7,0,8,1.0,asocial
01JVR941HYYMM3C2H61Y78CXT6,7,4,9,1.0,0,0,2,1,8,1.0,asocial
01JVR941HYYMM3C2H61Y78CXT6,7,5,9,1.0,0,0,0,1,8,1.0,asocial
01JVR941HYYMM3C2H61Y78CXT6,7,6,9,1.0,1,0,7,0,8,1.0,asocial
01JVR941HYYMM3C2H61Y78CXT6,7,7,9,1.0,0,0,6,0,8,1.0,asocial
01JVR941HYYMM3C2H61Y78CXT6,7,8,9,1.0,1,0,5,2,8,1.0,asocial
01JVR941HYYMM3C2H61Y78CXT6,7,9,9,1.0,3,0,3,0,8,1.0,asocial
01JVR941HYYMM3C2H61Y78CXT6,8,0,0,1.0,0,0,6,2,9,1.0,asocial
01JVR941HYYMM3C2H61Y78CXT6,8,1,0,1.0,0,0,14,1,9,1.0,asocial
01JVR941HYYMM3C2H61Y78CXT6,8,2,0,1.0,0,0,7,0,9,1.0,asocial
01JVR941HYYMM3C2H61Y78CXT6,8,3,0,1.0,1,0,7,0,9,1.0,asocial
01JVR941HYYMM3C2H61Y78CXT6,8,4,0,1.0,0,0,3,1,9,1.0,asocial
01JVR941HYYMM3C2H61Y78CXT6,8,5,0,1.0,0,0,0,1,9,1.0,asocial
01JVR941HYYMM3C2H61Y78CXT6,8,6,0,1.0,1,0,7,1,9,1.0,asocial
01JVR941HYYMM3C2H61Y78CXT6,8,7,0,1.0,0,0,7,0,9,1.0,asocial
01JVR941HYYMM3C2H61Y78CXT6,8,8,0,1.0,1,0,6,2,9,1.0,asocial
01JVR941HYYMM3C2H61Y78CXT6,8,9,0,1.0,4,0,4,0,9,1.0,asocial
01JVR941HYYMM3C2H61Y78CXT6,9,0,4,0.0,1,0,9,2,0,1.0,asocial
01JVR941HYYMM3C2H61Y78CXT6,9,1,4,0.0,0,0,17,1,0,1.0,asocial
01JVR941HYYMM3C2H61Y78CXT6,9,2,4,0.0,0,0,8,0,0,1.0,asocial
01JVR941HYYMM3C2H61Y78CXT6,9,3,4,0.0,1,0,7,0,0,1.0,asocial
01JVR941HYYMM3C2H61Y78CXT6,9,4,4,0.0,0,0,3,1,0,1.0,asocial
01JVR941HYYMM3C2H61Y78CXT6,9,5,4,0.0,0,0,0,1,0,1.0,asocial
01JVR941HYYMM3C2H61Y78CXT6,9,6,4,0.0,1,0,8,1,0,1.0,asocial
01JVR941HYYMM3C2H61Y78CXT6,9,7,4,0.0,0,0,8,0,0,1.0,asocial
01JVR941HYYMM3C2H61Y78CXT6,9,8,4,0.0,1,0,7,2,0,1.0,asocial
01JVR941HYYMM3C2H61Y78CXT6,9,9,4,0.0,4,0,4,0,0,1.0,asocial
01JVR941HYYMM3C2H61Y78CXT6,10,0,8,1.0,1,0,10,2,4,0.0,asocial
01JVR941HYYMM3C2H61Y78CXT6,10,1,8,1.0,0,0,19,2,4,0.0,asocial
01JVR941HYYMM3C2H61Y78CXT6,10,2,8,1.0,0,0,9,0,4,0.0,asocial
01JVR941HYYMM3C2H61Y78CXT6,10,3,8,1.0,1,0,8,0,4,0.0,asocial
01JVR941HYYMM3C2H61Y78CXT6,10,4,8,1.0,0,1,3,2,4,0.0,asocial
01JVR941HYYMM3C2H61Y78CXT6,10,5,8,1.0,0,0,0,1,4,0.0,asocial
01JVR941HYYMM3C2H61Y78CXT6,10,6,8,1.0,1,0,9,1,4,0.0,asocial
01JVR941HYYMM3C2H61Y78CXT6,10,7,8,1.0,0,0,9,0,4,0.0,asocial
01JVR941HYYMM3C2H61Y78CXT6,10,8,8,1.0,1,0,8,2,4,0.0,asocial
01JVR941HYYMM3C2H61Y78CXT6,10,9,8,1.0,4,0,4,0,4,0.0,asocial
01JVR941HYYMM3C2H61Y78CXT6,11,0,3,1.0,1,0,11,2,8,1.0,asocial
01JVR941HYYMM3C2H61Y78CXT6,11,1,3,1.0,0,0,22,2,8,1.0,asocial
01JVR941HYYMM3C2H61Y78CXT6,11,2,3,1.0,0,0,10,0,8,1.0,asocial
01JVR941HYYMM3C2H61Y78CXT6,11,3,3,1.0,1,0,8,1,8,1.0,asocial
01JVR941HYYMM3C2H61Y78CXT6,11,4,3,1.0,0,1,3,2,8,1.0,asocial
01JVR941HYYMM3C2H61Y78CXT6,11,5,3,1.0,0,0,0,1,8,1.0,asocial
01JVR941HYYMM3C2H61Y78CXT6,11,6,3,1.0,1,0,10,1,8,1.0,asocial
01JVR941HYYMM3C2H61Y78CXT6,11,7,3,1.0,0,0,10,0,8,1.0,asocial
01JVR941HYYMM3C2H61Y78CXT6,11,8,3,1.0,2,0,10,2,8,1.0,asocial
01JVR941HYYMM3C2H61Y78CXT6,11,9,3,1.0,4,0,4,0,8,1.0,asocial
01JVR941HYYMM3C2H61Y78CXT6,12,0,5,1.0,1,0,12,2,3,1.0,asocial
01JVR941HYYMM3C2H61Y78CXT6,12,1,5,1.0,0,0,25,2,3,1.0,asocial
01JVR941HYYMM3C2H61Y78CXT6,12,2,5,1.0,0,0,11,0,3,1.0,asocial
01JVR941HYYMM3C2H61Y78CXT6,12,3,5,1.0,2,0,9,1,3,1.0,asocial
01JVR941HYYMM3C2H61Y78CXT6,12,4,5,1.0,0,1,3,2,3,1.0,asocial
01JVR941HYYMM3C2H61Y78CXT6,12,5,5,1.0,0,0,1,1,3,1.0,asocial
01JVR941HYYMM3C2H61Y78CXT6,12,6,5,1.0,1,0,11,1,3,1.0,asocial
01JVR941HYYMM3C2H61Y78CXT6,12,7,5,1.0,0,0,11,0,3,1.0,asocial
01JVR941HYYMM3C2H61Y78CXT6,12,8,5,1.0,2,0,10,3,3,1.0,asocial
01JVR941HYYMM3C2H61Y78CXT6,12,9,5,1.0,4,0,4,0,3,1.0,asocial
01JVR941HYYMM3C2H61Y78CXT6,13,0,1,1.0,1,0,13,2,5,1.0,asocial
01JVR941HYYMM3C2H61Y78CXT6,13,1,1,1.0,0,0,28,2,5,1.0,asocial
01JVR941HYYMM3C2H61Y78CXT6,13,2,1,1.0,0,0,12,0,5,1.0,asocial
01JVR941HYYMM3C2H61Y78CXT6,13,3,1,1.0,2,0,9,1,5,1.0,asocial
01JVR941HYYMM3C2H61Y78CXT6,13,4,1,1.0,0,1,3,2,5,1.0,asocial
01JVR941HYYMM3C2H61Y78CXT6,13,5,1,1.0,1,0,2,1,5,1.0,asocial
01JVR941HYYMM3C2H61Y78CXT6,13,6,1,1.0,1,0,13,1,5,1.0,asocial
01JVR941HYYMM3C2H61Y78CXT6,13,7,1,1.0,0,0,12,0,5,1.0,asocial
01JVR941HYYMM3C2H61Y78CXT6,13,8,1,1.0,2,0,10,4,5,1.0,asocial
01JVR941HYYMM3C2H61Y78CXT6,13,9,1,1.0,4,0,4,0,5,1.0,asocial
01JVR941HYYMM3C2H61Y78CXT6,14,0,1,1.0,1,0,14,2,1,1.0,asocial
01JVR941HYYMM3C2H61Y78CXT6,14,1,1,1.0,1,0,32,2,1,1.0,asocial
01JVR941HYYMM3C2H61Y78CXT6,14,2,1,1.0,0,0,13,1,1,1.0,asocial
01JVR941HYYMM3C2H61Y78CXT6,14,3,1,1.0,2,0,9,1,1,1.0,asocial
01JVR941HYYMM3C2H61Y78CXT6,14,4,1,1.0,0,1,3,2,1,1.0,asocial
01JVR941HYYMM3C2H61Y78CXT6,14,5,1,1.0,1,0,2,1,1,1.0,asocial
01JVR941HYYMM3C2H61Y78CXT6,14,6,1,1.0,1,0,14,1,1,1.0,asocial
01JVR941HYYMM3C2H61Y78CXT6,14,7,1,1.0,0,0,13,0,1,1.0,asocial
01JVR941HYYMM3C2H61Y78CXT6,14,8,1,1.0,2,0,11,4,1,1.0,asocial
01JVR941HYYMM3C2H61Y78CXT6,14,9,1,1.0,4,0,4,0,1,1.0,asocial
01JVR941HYYMM3C2H61Y78CXT6,15,0,9,1.0,1,0,15,2,1,1.0,asocial
01JVR941HYYMM3C2H61Y78CXT6,15,1,9,1.0,2,0,36,2,1,1.0,asocial
01JVR941HYYMM3C2H61Y78CXT6,15,2,9,1.0,0,0,14,1,1,1.0,asocial
01JVR941HYYMM3C2H61Y78CXT6,15,3,9,1.0,2,0,9,1,1,1.0,asocial
01JVR941HYYMM3C2H61Y78CXT6,15,4,9,1.0,0,1,3,2,1,1.0,asocial
01JVR941HYYMM3C2H61Y78CXT6,15,5,9,1.0,1,0,2,1,1,1.0,asocial
01JVR941HYYMM3C2H61Y78CXT6,15,6,9,1.0,1,0,15,1,1,1.0,asocial
01JVR941HYYMM3C2H61Y78CXT6,15,7,9,1.0,0,0,15,0,1,1.0,asocial
01JVR941HYYMM3C2H61Y78CXT6,15,8,9,1.0,2,0,12,4,1,1.0,asocial
01JVR941HYYMM3C2H61Y78CXT6,15,9,9,1.0,4,0,4,0,1,1.0,asocial
01JVR941HYYMM3C2H61Y78CXT6,16,0,2,1.0,1,0,16,2,9,1.0,asocial
01JVR941HYYMM3C2H61Y78CXT6,16,1,2,1.0,2,0,39,2,9,1.0,asocial
01JVR941HYYMM3C2H61Y78CXT6,16,2,2,1.0,0,0,15,1,9,1.0,asocial
01JVR941HYYMM3C2H61Y78CXT6,16,3,2,1.0,2,0,9,1,9,1.0,asocial
01JVR941HYYMM3C2H61Y78CXT6,16,4,2,1.0,0,1,3,2,9,1.0,asocial
01JVR941HYYMM3C2H61Y78CXT6,16,5,2,1.0,1,0,2,1,9,1.0,asocial
01JVR941HYYMM3C2H61Y78CXT6,16,6,2,1.0,1,0,16,1,9,1.0,asocial
01JVR941HYYMM3C2H61Y78CXT6,16,7,2,1.0,0,0,16,0,9,1.0,asocial
01JVR941HYYMM3C2H61Y78CXT6,16,8,2,1.0,2,0,13,4,9,1.0,asocial
01JVR941HYYMM3C2H61Y78CXT6,16,9,2,1.0,5,0,6,0,9,1.0,asocial
01JVR941HYYMM3C2H61Y78CXT6,17,0,6,1.0,1,0,17,2,2,1.0,asocial
01JVR941HYYMM3C2H61Y78CXT6,17,1,6,1.0,2,0,41,3,2,1.0,asocial
01JVR941HYYMM3C2H61Y78CXT6,17,2,6,1.0,1,0,17,1,2,1.0,asocial
01JVR941HYYMM3C2H61Y78CXT6,17,3,6,1.0,2,0,9,1,2,1.0,asocial
01JVR941HYYMM3C2H61Y78CXT6,17,4,6,1.0,0,1,3,2,2,1.0,asocial
01JVR941HYYMM3C2H61Y78CXT6,17,5,6,1.0,1,0,2,1,2,1.0,asocial
01JVR941HYYMM3C2H61Y78CXT6,17,6,6,1.0,1,0,17,1,2,1.0,asocial
01JVR941HYYMM3C2H61Y78CXT6,17,7,6,1.0,0,0,17,0,2,1.0,asocial
01JVR941HYYMM3C2H61Y78CXT6,17,8,6,1.0,2,0,15,4,2,1.0,asocial
01JVR941HYYMM3C2H61Y78CXT6,17,9,6,1.0,5,0,6,0,2,1.0,asocial
01JVR941HYYMM3C2H61Y78CXT6,18,0,7,0.0,1,0,18,2,6,1.0,asocial
01JVR941HYYMM3C2H61Y78CXT6,18,1,7,0.0,2,0,44,3,6,1.0,asocial
01JVR941HYYMM3C2H61Y78CXT6,18,2,7,0.0,1,0,19,1,6,1.0,asocial
01JVR941HYYMM3C2H61Y78CXT6,18,3,7,0.0,2,0,9,1,6,1.0,asocial
01JVR941HYYMM3C2H61Y78CXT6,18,4,7,0.0,0,1,3,2,6,1.0,asocial
01JVR941HYYMM3C2H61Y78CXT6,18,5,7,0.0,1,0,2,1,6,1.0,asocial
01JVR941HYYMM3C2H61Y78CXT6,18,6,7,0.0,2,0,19,1,6,1.0,asocial
01JVR941HYYMM3C2H61Y78CXT6,18,7,7,0.0,0,0,18,0,6,1.0,asocial
01JVR941HYYMM3C2H61Y78CXT6,18,8,7,0.0,2,0,15,5,6,1.0,asocial
01JVR941HYYMM3C2H61Y78CXT6,18,9,7,0.0,5,0,6,0,6,1.0,asocial
01JVR941HYYMM3C2H61Y78CXT6,19,0,6,1.0,1,0,19,2,7,0.0,asocial
01JVR941HYYMM3C2H61Y78CXT6,19,1,6,1.0,2,0,46,4,7,0.0,asocial
01JVR941HYYMM3C2H61Y78CXT6,19,2,6,1.0,1,0,21,1,7,0.0,asocial
01JVR941HYYMM3C2H61Y78CXT6,19,3,6,1.0,2,0,9,1,7,0.0,asocial
01JVR941HYYMM3C2H61Y78CXT6,19,4,6,1.0,0,1,3,2,7,0.0,asocial
01JVR941HYYMM3C2H61Y78CXT6,19,5,6,1.0,1,0,2,1,7,0.0,asocial
01JVR941HYYMM3C2H61Y78CXT6,19,6,6,1.0,2,0,20,1,7,0.0,asocial
01JVR941HYYMM3C2H61Y78CXT6,19,7,6,1.0,0,1,19,1,7,0.0,asocial
01JVR941HYYMM3C2H61Y78CXT6,19,8,6,1.0,2,0,16,5,7,0.0,asocial
01JVR941HYYMM3C2H61Y78CXT6,19,9,6,1.0,5,0,6,0,7,0.0,asocial
01JVR941HYYMM3C2H61Y78CXT6,20,0,8,1.0,1,0,19,3,6,1.0,asocial
01JVR941HYYMM3C2H61Y78CXT6,20,1,8,1.0,2,0,49,4,6,1.0,asocial
01JVR941HYYMM3C2H61Y78CXT6,20,2,8,1.0,1,0,22,1,6,1.0,asocial
01JVR941HYYMM3C2H61Y78CXT6,20,3,8,1.0,2,0,10,1,6,1.0,asocial
01JVR941HYYMM3C2H61Y78CXT6,20,4,8,1.0,0,1,3,2,6,1.0,asocial
01JVR941HYYMM3C2H61Y78CXT6,20,5,8,1.0,1,0,2,1,6,1.0,asocial
01JVR941HYYMM3C2H61Y78CXT6,20,6,8,1.0,3,0,22,1,6,1.0,asocial
01JVR941HYYMM3C2H61Y78CXT6,20,7,8,1.0,0,1,20,1,6,1.0,asocial
01JVR941HYYMM3C2H61Y78CXT6,20,8,8,1.0,2,0,17,5,6,1.0,asocial
01JVR941HYYMM3C2H61Y78CXT6,20,9,8,1.0,5,0,6,0,6,1.0,asocial
01JVR941HYYMM3C2H61Y78CXT6,21,0,4,1.0,1,0,20,3,8,1.0,asocial
01JVR941HYYMM3C2H61Y78CXT6,21,1,4,1.0,2,0,52,4,8,1.0,asocial
01JVR941HYYMM3C2H61Y78CXT6,21,2,4,1.0,1,0,23,1,8,1.0,asocial
01JVR941HYYMM3C2H61Y78CXT6,21,3,4,1.0,2,0,11,1,8,1.0,asocial
01JVR941HYYMM3C2H61Y78CXT6,21,4,4,1.0,0,1,3,2,8,1.0,asocial
01JVR941HYYMM3C2H61Y78CXT6,21,5,4,1.0,1,0,2,1,8,1.0,asocial
01JVR941HYYMM3C2H61Y78CXT6,21,6,4,1.0,3,0,23,1,8,1.0,asocial
01JVR941HYYMM3C2H61Y78CXT6,21,7,4,1.0,0,1,21,1,8,1.0,asocial
01JVR941HYYMM3C2H61Y78CXT6,21,8,4,1.0,3,0,19,5,8,1.0,asocial
01JVR941HYYMM3C2H61Y78CXT6,21,9,4,1.0,5,0,6,0,8,1.0,asocial
01JVR941HYYMM3C2H61Y78CXT6,22,0,5,1.0,1,0,20,4,4,1.0,asocial
01JVR941HYYMM3C2H61Y78CXT6,22,1,5,1.0,2,0,55,4,4,1.0,asocial
01JVR941HYYMM3C2H61Y78CXT6,22,2,5,1.0,1,0,24,1,4,1.0,asocial
01JVR941HYYMM3C2H61Y78CXT6,22,3,5,1.0,2,0,12,1,4,1.0,asocial
01JVR941HYYMM3C2H61Y78CXT6,22,4,5,1.0,1,1,4,2,4,1.0,asocial
01JVR941HYYMM3C2H61Y78CXT6,22,5,5,1.0,1,0,2,1,4,1.0,asocial
01JVR941HYYMM3C2H61Y78CXT6,22,6,5,1.0,3,0,24,1,4,1.0,asocial
01JVR941HYYMM3C2H61Y78CXT6,22,7,5,1.0,0,1,22,1,4,1.0,asocial
01JVR941HYYMM3C2H61Y78CXT6,22,8,5,1.0,3,0,20,5,4,1.0,asocial
01JVR941HYYMM3C2H61Y78CXT6,22,9,5,1.0,5,0,6,0,4,1.0,asocial
01JVR941HYYMM3C2H61Y78CXT6,23,0,3,1.0,1,0,21,4,5,1.0,asocial
01JVR941HYYMM3C2H61Y78CXT6,23,1,3,1.0,2,0,58,4,5,1.0,asocial
01JVR941HYYMM3C2H61Y78CXT6,23,2,3,1.0,1,0,25,1,5,1.0,asocial
01JVR941HYYMM3C2H61Y78CXT6,23,3,3,1.0,2,0,13,1,5,1.0,asocial
01JVR941HYYMM3C2H61Y78CXT6,23,4,3,1.0,1,1,4,2,5,1.0,asocial
01JVR941HYYMM3C2H61Y78CXT6,23,5,3,1.0,2,0,3,1,5,1.0,asocial
01JVR941HYYMM3C2H61Y78CXT6,23,6,3,1.0,3,0,25,1,5,1.0,asocial
01JVR941HYYMM3C2H61Y78CXT6,23,7,3,1.0,0,1,23,1,5,1.0,asocial
01JVR941HYYMM3C2H61Y78CXT6,23,8,3,1.0,3,0,21,5,5,1.0,asocial
01JVR941HYYMM3C2H61Y78CXT6,23,9,3,1.0,5,0,6,0,5,1.0,asocial
01JVR941HYYMM3C2H61Y78CXT6,24,0,0,1.0,1,0,21,5,3,1.0,asocial
01JVR941HYYMM3C2H61Y78CXT6,24,1,0,1.0,2,0,61,4,3,1.0,asocial
01JVR941HYYMM3C2H61Y78CXT6,24,2,0,1.0,1,0,26,1,3,1.0,asocial
01JVR941HYYMM3C2H61Y78CXT6,24,3,0,1.0,3,0,14,2,3,1.0,asocial
01JVR941HYYMM3C2H61Y78CXT6,24,4,0,1.0,1,1,4,2,3,1.0,asocial
01JVR941HYYMM3C2H61Y78CXT6,24,5,0,1.0,2,0,3,1,3,1.0,asocial
01JVR941HYYMM3C2H61Y78CXT6,24,6,0,1.0,3,0,26,1,3,1.0,asocial
01JVR941HYYMM3C2H61Y78CXT6,24,7,0,1.0,0,1,24,1,3,1.0,asocial
01JVR941HYYMM3C2H61Y78CXT6,24,8,0,1.0,3,0,22,5,3,1.0,asocial
01JVR941HYYMM3C2H61Y78CXT6,24,9,0,1.0,5,0,6,0,3,1.0,asocial
01JVR941HYYMM3C2H61Y78CXT6,25,0,1,1.0,2,0,23,5,0,1.0,asocial
01JVR941HYYMM3C2H61Y78CXT6,25,1,1,1.0,2,0,64,4,0,1.0,asocial
01JVR941HYYMM3C2H61Y78CXT6,25,2,1,1.0,1,0,27,1,0,1.0,asocial
01JVR941HYYMM3C2H61Y78CXT6,25,3,1,1.0,3,0,15,2,0,1.0,asocial
01JVR941HYYMM3C2H61Y78CXT6,25,4,1,1.0,1,1,4,2,0,1.0,asocial
01JVR941HYYMM3C2H61Y78CXT6,25,5,1,1.0,2,0,3,1,0,1.0,asocial
01JVR941HYYMM3C2H61Y78CXT6,25,6,1,1.0,3,0,27,1,0,1.0,asocial
01JVR941HYYMM3C2H61Y78CXT6,25,7,1,1.0,0,1,25,1,0,1.0,asocial
01JVR941HYYMM3C2H61Y78CXT6,25,8,1,1.0,3,0,23,5,0,1.0,asocial
01JVR941HYYMM3C2H61Y78CXT6,25,9,1,1.0,5,0,6,0,0,1.0,asocial
01JVR941HYYMM3C2H61Y78CXT6,26,0,2,1.0,2,0,24,5,1,1.0,asocial
01JVR941HYYMM3C2H61Y78CXT6,26,1,2,1.0,3,0,69,4,1,1.0,asocial
01JVR941HYYMM3C2H61Y78CXT6,26,2,2,1.0,1,0,28,1,1,1.0,asocial
01JVR941HYYMM3C2H61Y78CXT6,26,3,2,1.0,3,0,15,2,1,1.0,asocial
01JVR941HYYMM3C2H61Y78CXT6,26,4,2,1.0,1,1,4,2,1,1.0,asocial
01JVR941HYYMM3C2H61Y78CXT6,26,5,2,1.0,2,0,3,1,1,1.0,asocial
01JVR941HYYMM3C2H61Y78CXT6,26,6,2,1.0,3,0,28,1,1,1.0,asocial
01JVR941HYYMM3C2H61Y78CXT6,26,7,2,1.0,0,1,26,1,1,1.0,asocial
01JVR941HYYMM3C2H61Y78CXT6,26,8,2,1.0,3,0,24,5,1,1.0,asocial
01JVR941HYYMM3C2H61Y78CXT6,26,9,2,1.0,5,0,6,0,1,1.0,asocial
01JVR941HYYMM3C2H61Y78CXT6,27,0,6,1.0,2,0,25,5,2,1.0,asocial
01JVR941HYYMM3C2H61Y78CXT6,27,1,6,1.0,3,0,72,5,2,1.0,asocial
01JVR941HYYMM3C2H61Y78CXT6,27,2,6,1.0,2,0,30,1,2,1.0,asocial
01JVR941HYYMM3C2H61Y78CXT6,27,3,6,1.0,3,0,15,2,2,1.0,asocial
01JVR941HYYMM3C2H61Y78CXT6,27,4,6,1.0,1,1,4,2,2,1.0,asocial
01JVR941HYYMM3C2H61Y78CXT6,27,5,6,1.0,2,0,3,1,2,1.0,asocial
01JVR941HYYMM3C2H61Y78CXT6,27,6,6,1.0,3,0,29,1,2,1.0,asocial
01JVR941HYYMM3C2H61Y78CXT6,27,7,6,1.0,0,1,27,1,2,1.0,asocial
01JVR941HYYMM3C2H61Y78CXT6,27,8,6,1.0,3,0,25,5,2,1.0,asocial
01JVR941HYYMM3C2H61Y78CXT6,27,9,6,1.0,5,0,6,0,2,1.0,asocial
01JVR941HYYMM3C2H61Y78CXT6,28,0,0,1.0,2,0,26,5,6,1.0,asocial
01JVR941HYYMM3C2H61Y78CXT6,28,1,0,1.0,3,0,75,5,6,1.0,asocial
01JVR941HYYMM3C2H61Y78CXT6,28,2,0,1.0,2,0,31,1,6,1.0,asocial
01JVR941HYYMM3C2H61Y78CXT6,28,3,0,1.0,3,0,15,2,6,1.0,asocial
01JVR941HYYMM3C2H61Y78CXT6,28,4,0,1.0,1,1,4,2,6,1.0,asocial
01JVR941HYYMM3C2H61Y78CXT6,28,5,0,1.0,2,0,3,1,6,1.0,asocial
01JVR941HYYMM3C2H61Y78CXT6,28,6,0,1.0,4,0,32,1,6,1.0,asocial
01JVR941HYYMM3C2H61Y78CXT6,28,7,0,1.0,0,1,28,1,6,1.0,asocial
01JVR941HYYMM3C2H61Y78CXT6,28,8,0,1.0,3,0,26,5,6,1.0,asocial
01JVR941HYYMM3C2H61Y78CXT6,28,9,0,1.0,5,0,6,0,6,1.0,asocial
01JVR941HYYMM3C2H61Y78CXT6,29,0,9,1.0,3,0,28,5,0,1.0,asocial
01JVR941HYYMM3C2H61Y78CXT6,29,1,9,1.0,3,0,78,5,0,1.0,asocial
01JVR941HYYMM3C2H61Y78CXT6,29,2,9,1.0,2,0,32,1,0,1.0,asocial
01JVR941HYYMM3C2H61Y78CXT6,29,3,9,1.0,3,0,15,2,0,1.0,asocial
01JVR941HYYMM3C2H61Y78CXT6,29,4,9,1.0,1,1,4,2,0,1.0,asocial
01JVR941HYYMM3C2H61Y78CXT6,29,5,9,1.0,2,0,3,1,0,1.0,asocial
01JVR941HYYMM3C2H61Y78CXT6,29,6,9,1.0,4,0,34,1,0,1.0,asocial
01JVR941HYYMM3C2H61Y78CXT6,29,7,9,1.0,0,1,29,1,0,1.0,asocial
01JVR941HYYMM3C2H61Y78CXT6,29,8,9,1.0,3,0,27,5,0,1.0,asocial
01JVR941HYYMM3C2H61Y78CXT6,29,9,9,1.0,5,0,6,0,0,1.0,asocial
01JVR941HYYMM3C2H61Y78CXT6,30,0,8,0.0,3,0,29,5,9,1.0,asocial
01JVR941HYYMM3C2H61Y78CXT6,30,1,8,0.0,3,0,81,5,9,1.0,asocial
01JVR941HYYMM3C2H61Y78CXT6,30,2,8,0.0,2,0,33,1,9,1.0,asocial
01JVR941HYYMM3C2H61Y78CXT6,30,3,8,0.0,3,0,15,2,9,1.0,asocial
01JVR941HYYMM3C2H61Y78CXT6,30,4,8,0.0,1,1,4,2,9,1.0,asocial
01JVR941HYYMM3C2H61Y78CXT6,30,5,8,0.0,2,0,3,1,9,1.0,asocial
01JVR941HYYMM3C2H61Y78CXT6,30,6,8,0.0,4,0,36,1,9,1.0,asocial
01JVR941HYYMM3C2H61Y78CXT6,30,7,8,0.0,0,1,30,1,9,1.0,asocial
01JVR941HYYMM3C2H61Y78CXT6,30,8,8,0.0,3,0,28,5,9,1.0,asocial
01JVR941HYYMM3C2H61Y78CXT6,30,9,8,0.0,6,0,7,0,9,1.0,asocial
01JVR941HYYMM3C2H61Y78CXT6,31,0,3,1.0,3,0,30,5,8,0.0,asocial
01JVR941HYYMM3C2H61Y78CXT6,31,1,3,1.0,3,0,83,6,8,0.0,asocial
01JVR941HYYMM3C2H61Y78CXT6,31,2,3,1.0,2,0,34,1,8,0.0,asocial
01JVR941HYYMM3C2H61Y78CXT6,31,3,3,1.0,3,0,15,2,8,0.0,asocial
01JVR941HYYMM3C2H61Y78CXT6,31,4,3,1.0,1,1,4,2,8,0.0,asocial
01JVR941HYYMM3C2H61Y78CXT6,31,5,3,1.0,2,0,3,1,8,0.0,asocial
01JVR941HYYMM3C2H61Y78CXT6,31,6,3,1.0,4,0,38,1,8,0.0,asocial
01JVR941HYYMM3C2H61Y78CXT6,31,7,3,1.0,0,1,31,1,8,0.0,asocial
01JVR941HYYMM3C2H61Y78CXT6,31,8,3,1.0,3,1,29,6,8,0.0,asocial
01JVR941HYYMM3C2H61Y78CXT6,31,9,3,1.0,6,0,7,0,8,0.0,asocial
01JVR941HYYMM3C2H61Y78CXT6,32,0,9,1.0,3,0,31,5,3,1.0,asocial
01JVR941HYYMM3C2H61Y78CXT6,32,1,9,1.0,3,0,85,7,3,1.0,asocial
01JVR941HYYMM3C2H61Y78CXT6,32,2,9,1.0,2,0,35,1,3,1.0,asocial
01JVR941HYYMM3C2H61Y78CXT6,32,3,9,1.0,4,0,16,2,3,1.0,asocial
01JVR941HYYMM3C2H61Y78CXT6,32,4,9,1.0,1,1,4,2,3,1.0,asocial
01JVR941HYYMM3C2H61Y78CXT6,32,5,9,1.0,2,0,3,1,3,1.0,asocial
01JVR941HYYMM3C2H61Y78CXT6,32,6,9,1.0,4,0,40,1,3,1.0,asocial
01JVR941HYYMM3C2H61Y78CXT6,32,7,9,1.0,0,1,32,1,3,1.0,asocial
01JVR941HYYMM3C2H61Y78CXT6,32,8,9,1.0,3,1,30,6,3,1.0,asocial
01JVR941HYYMM3C2H61Y78CXT6,32,9,9,1.0,6,0,7,0,3,1.0,asocial
01JVR941HYYMM3C2H61Y78CXT6,33,0,5,1.0,3,0,32,5,9,1.0,asocial
01JVR941HYYMM3C2H61Y78CXT6,33,1,5,1.0,3,0,87,8,9,1.0,asocial
01JVR941HYYMM3C2H61Y78CXT6,33,2,5,1.0,2,0,35,2,9,1.0,asocial
01JVR941HYYMM3C2H61Y78CXT6,33,3,5,1.0,4,0,16,2,9,1.0,asocial
01JVR941HYYMM3C2H61Y78CXT6,33,4,5,1.0,1,1,4,2,9,1.0,asocial
01JVR941HYYMM3C2H61Y78CXT6,33,5,5,1.0,2,0,3,1,9,1.0,asocial
01JVR941HYYMM3C2H61Y78CXT6,33,6,5,1.0,4,0,40,3,9,1.0,asocial
01JVR941HYYMM3C2H61Y78CXT6,33,7,5,1.0,0,1,33,1,9,1.0,asocial
01JVR941HYYMM3C2H61Y78CXT6,33,8,5,1.0,3,1,30,7,9,1.0,asocial
01JVR941HYYMM3C2H61Y78CXT6,33,9,5,1.0,7,0,8,0,9,1.0,asocial
01JVR941HYYMM3C2H61Y78CXT6,34,0,1,1.0,3,0,33,5,5,1.0,asocial
01JVR941HYYMM3C2H61Y78CXT6,34,1,1,1.0,3,0,90,8,5,1.0,asocial
01JVR941HYYMM3C2H61Y78CXT6,34,2,1,1.0,2,0,35,3,5,1.0,asocial
01JVR941HYYMM3C2H61Y78CXT6,34,3,1,1.0,4,0,16,2,5,1.0,asocial
01JVR941HYYMM3C2H61Y78CXT6,34,4,1,1.0,1,1,4,2,5,1.0,asocial
01JVR941HYYMM3C2H61Y78CXT6,34,5,1,1.0,3,0,5,1,5,1.0,asocial
01JVR941HYYMM3C2H61Y78CXT6,34,6,1,1.0,4,0,41,3,5,1.0,asocial
01JVR941HYYMM3C2H61Y78CXT6,34,7,1,1.0,0,1,34,1,5,1.0,asocial
01JVR941HYYMM3C2H61Y78CXT6,34,8,1,1.0,3,1,31,7,5,1.0,asocial
01JVR941HYYMM3C2H61Y78CXT6,34,9,1,1.0,7,0,8,0,5,1.0,asocial
01JVR941HYYMM3C2H61Y78CXT6,35,0,9,1.0,3,0,34,5,1,1.0,asocial
01JVR941HYYMM3C2H61Y78CXT6,35,1,9,1.0,4,0,94,8,1,1.0,asocial
01JVR941HYYMM3C2H61Y78CXT6,35,2,9,1.0,2,0,36,3,1,1.0,asocial
01JVR941HYYMM3C2H61Y78CXT6,35,3,9,1.0,4,0,16,2,1,1.0,asocial
01JVR941HYYMM3C2H61Y78CXT6,35,4,9,1.0,1,1,4,2,1,1.0,asocial
01JVR941HYYMM3C2H61Y78CXT6,35,5,9,1.0,3,0,6,1,1,1.0,asocial
01JVR941HYYMM3C2H61Y78CXT6,35,6,9,1.0,4,0,42,3,1,1.0,asocial
01JVR941HYYMM3C2H61Y78CXT6,35,7,9,1.0,0,1,35,1,1,1.0,asocial
01JVR941HYYMM3C2H61Y78CXT6,35,8,9,1.0,3,1,31,8,1,1.0,asocial
01JVR941HYYMM3C2H61Y78CXT6,35,9,9,1.0,7,0,8,0,1,1.0,asocial
01JVR941HYYMM3C2H61Y78CXT6,36,0,2,1.0,3,0,35,5,9,1.0,asocial
01JVR941HYYMM3C2H61Y78CXT6,36,1,2,1.0,4,0,96,8,9,1.0,asocial
01JVR941HYYMM3C2H61Y78CXT6,36,2,2,1.0,2,0,36,4,9,1.0,asocial
01JVR941HYYMM3C2H61Y78CXT6,36,3,2,1.0,4,0,16,2,9,1.0,asocial
01JVR941HYYMM3C2H61Y78CXT6,36,4,2,1.0,1,1,5,2,9,1.0,asocial
01JVR941HYYMM3C2H61Y78CXT6,36,5,2,1.0,3,0,7,1,9,1.0,asocial
01JVR941HYYMM3C2H61Y78CXT6,36,6,2,1.0,4,0,43,3,9,1.0,asocial
01JVR941HYYMM3C2H61Y78CXT6,36,7,2,1.0,0,1,36,1,9,1.0,asocial
01JVR941HYYMM3C2H61Y78CXT6,36,8,2,1.0,3,1,32,8,9,1.0,asocial
01JVR941HYYMM3C2H61Y78CXT6,36,9,2,1.0,8,0,9,0,9,1.0,asocial
01JVR941HYYMM3C2H61Y78CXT6,37,0,6,1.0,3,0,36,5,2,1.0,asocial
01JVR941HYYMM3C2H61Y78CXT6,37,1,6,1.0,4,0,98,8,2,1.0,asocial
01JVR941HYYMM3C2H61Y78CXT6,37,2,6,1.0,3,0,38,4,2,1.0,asocial
01JVR941HYYMM3C2H61Y78CXT6,37,3,6,1.0,4,0,16,2,2,1.0,asocial
01JVR941HYYMM3C2H61Y78CXT6,37,4,6,1.0,1,1,6,2,2,1.0,asocial
01JVR941HYYMM3C2H61Y78CXT6,37,5,6,1.0,3,0,8,1,2,1.0,asocial
01JVR941HYYMM3C2H61Y78CXT6,37,6,6,1.0,4,0,44,3,2,1.0,asocial
01JVR941HYYMM3C2H61Y78CXT6,37,7,6,1.0,0,1,37,1,2,1.0,asocial
01JVR941HYYMM3C2H61Y78CXT6,37,8,6,1.0,3,1,33,8,2,1.0,asocial
01JVR941HYYMM3C2H61Y78CXT6,37,9,6,1.0,8,0,9,0,2,1.0,asocial
01JVR941HYYMM3C2H61Y78CXT6,38,0,9,0.0,3,0,37,5,6,1.0,asocial
01JVR941HYYMM3C2H61Y78CXT6,38,1,9,0.0,4,0,100,8,6,1.0,asocial
01JVR941HYYMM3C2H61Y78CXT6,38,2,9,0.0,3,0,39,4,6,1.0,asocial
01JVR941HYYMM3C2H61Y78CXT6,38,3,9,0.0,4,0,16,2,6,1.0,asocial
01JVR941HYYMM3C2H61Y78CXT6,38,4,9,0.0,1,1,7,2,6,1.0,asocial
01JVR941HYYMM3C2H61Y78CXT6,38,5,9,0.0,3,0,9,1,6,1.0,asocial
01JVR941HYYMM3C2H61Y78CXT6,38,6,9,0.0,5,0,45,4,6,1.0,asocial
01JVR941HYYMM3C2H61Y78CXT6,38,7,9,0.0,0,1,38,1,6,1.0,asocial
01JVR941HYYMM3C2H61Y78CXT6,38,8,9,0.0,3,1,34,8,6,1.0,asocial
01JVR941HYYMM3C2H61Y78CXT6,38,9,9,0.0,8,0,9,0,6,1.0,asocial
01JVR941HYYMM3C2H61Y78CXT6,39,0,2,1.0,3,0,38,5,9,0.0,asocial
01JVR941HYYMM3C2H61Y78CXT6,39,1,2,1.0,4,0,101,9,9,0.0,asocial
01JVR941HYYMM3C2H61Y78CXT6,39,2,2,1.0,3,0,40,4,9,0.0,asocial
01JVR941HYYMM3C2H61Y78CXT6,39,3,2,1.0,4,0,16,2,9,0.0,asocial
01JVR941HYYMM3C2H61Y78CXT6,39,4,2,1.0,1,1,8,2,9,0.0,asocial
01JVR941HYYMM3C2H61Y78CXT6,39,5,2,1.0,3,0,10,1,9,0.0,asocial
01JVR941HYYMM3C2H61Y78CXT6,39,6,2,1.0,5,0,46,4,9,0.0,asocial
01JVR941HYYMM3C2H61Y78CXT6,39,7,2,1.0,0,1,39,1,9,0.0,asocial
01JVR941HYYMM3C2H61Y78CXT6,39,8,2,1.0,3,1,34,8,9,0.0,asocial
01JVR941HYYMM3C2H61Y78CXT6,39,9,2,1.0,8,1,9,1,9,0.0,asocial
01JVR941HYYMM3C2H61Y78CXT6,40,0,5,1.0,3,0,39,5,2,1.0,asocial
01JVR941HYYMM3C2H61Y78CXT6,40,1,5,1.0,4,0,103,9,2,1.0,asocial
01JVR941HYYMM3C2H61Y78CXT6,40,2,5,1.0,4,0,42,4,2,1.0,asocial
01JVR941HYYMM3C2H61Y78CXT6,40,3,5,1.0,4,0,16,2,2,1.0,asocial
01JVR941HYYMM3C2H61Y78CXT6,40,4,5,1.0,1,1,9,2,2,1.0,asocial
01JVR941HYYMM3C2H61Y78CXT6,40,5,5,1.0,3,0,11,1,2,1.0,asocial
01JVR941HYYMM3C2H61Y78CXT6,40,6,5,1.0,5,0,47,4,2,1.0,asocial
01JVR941HYYMM3C2H61Y78CXT6,40,7,5,1.0,0,1,40,1,2,1.0,asocial
01JVR941HYYMM3C2H61Y78CXT6,40,8,5,1.0,3,1,35,8,2,1.0,asocial
01JVR941HYYMM3C2H61Y78CXT6,40,9,5,1.0,8,1,9,1,2,1.0,asocial
01JVR941HYYMM3C2H61Y78CXT6,41,0,6,1.0,3,0,40,5,5,1.0,asocial
01JVR941HYYMM3C2H61Y78CXT6,41,1,6,1.0,4,0,105,9,5,1.0,asocial
01JVR941HYYMM3C2H61Y78CXT6,41,2,6,1.0,4,0,43,4,5,1.0,asocial
01JVR941HYYMM3C2H61Y78CXT6,41,3,6,1.0,4,0,16,2,5,1.0,asocial
01JVR941HYYMM3C2H61Y78CXT6,41,4,6,1.0,1,1,10,2,5,1.0,asocial
01JVR941HYYMM3C2H61Y78CXT6,41,5,6,1.0,4,0,13,1,5,1.0,asocial
01JVR941HYYMM3C2H61Y78CXT6,41,6,6,1.0,5,0,48,4,5,1.0,asocial
01JVR941HYYMM3C2H61Y78CXT6,41,7,6,1.0,0,1,41,1,5,1.0,asocial
01JVR941HYYMM3C2H61Y78CXT6,41,8,6,1.0,3,1,36,8,5,1.0,asocial
01JVR941HYYMM3C2H61Y78CXT6,41,9,6,1.0,8,1,9,1,5,1.0,asocial
01JVR941HYYMM3C2H61Y78CXT6,42,0,0,1.0,3,0,41,5,6,1.0,asocial
01JVR941HYYMM3C2H61Y78CXT6,42,1,0,1.0,4,0,107,9,6,1.0,asocial
01JVR941HYYMM3C2H61Y78CXT6,42,2,0,1.0,4,0,43,5,6,1.0,asocial
01JVR941HYYMM3C2H61Y78CXT6,42,3,0,1.0,4,0,16,2,6,1.0,asocial
01JVR941HYYMM3C2H61Y78CXT6,42,4,0,1.0,1,1,11,2,6,1.0,asocial
01JVR941HYYMM3C2H61Y78CXT6,42,5,0,1.0,4,0,13,2,6,1.0,asocial
01JVR941HYYMM3C2H61Y78CXT6,42,6,0,1.0,6,0,50,4,6,1.0,asocial
01JVR941HYYMM3C2H61Y78CXT6,42,7,0,1.0,0,1,42,1,6,1.0,asocial
01JVR941HYYMM3C2H61Y78CXT6,42,8,0,1.0,3,1,37,8,6,1.0,asocial
01JVR941HYYMM3C2H61Y78CXT6,42,9,0,1.0,8,1,9,1,6,1.0,asocial
01JVR941HYYMM3C2H61Y78CXT6,43,0,2,1.0,4,0,44,5,0,1.0,asocial
01JVR941HYYMM3C2H61Y78CXT6,43,1,2,1.0,4,0,109,9,0,1.0,asocial
01JVR941HYYMM3C2H61Y78CXT6,43,2,2,1.0,4,0,43,6,0,1.0,asocial
01JVR941HYYMM3C2H61Y78CXT6,43,3,2,1.0,4,0,16,2,0,1.0,asocial
01JVR941HYYMM3C2H61Y78CXT6,43,4,2,1.0,1,1,12,2,0,1.0,asocial
01JVR941HYYMM3C2H61Y78CXT6,43,5,2,1.0,4,0,13,2,0,1.0,asocial
01JVR941HYYMM3C2H61Y78CXT6,43,6,2,1.0,6,0,50,5,0,1.0,asocial
01JVR941HYYMM3C2H61Y78CXT6,43,7,2,1.0,0,1,43,1,0,1.0,asocial
01JVR941HYYMM3C2H61Y78CXT6,43,8,2,1.0,3,1,38,8,0,1.0,asocial
01JVR941HYYMM3C2H61Y78CXT6,43,9,2,1.0,8,1,9,1,0,1.0,asocial
01JVR941HYYMM3C2H61Y78CXT6,44,0,9,1.0,4,0,46,5,2,1.0,asocial
01JVR941HYYMM3C2H61Y78CXT6,44,1,9,1.0,4,0,111,9,2,1.0,asocial
01JVR941HYYMM3C2H61Y78CXT6,44,2,9,1.0,5,0,45,6,2,1.0,asocial
01JVR941HYYMM3C2H61Y78CXT6,44,3,9,1.0,4,0,16,2,2,1.0,asocial
01JVR941HYYMM3C2H61Y78CXT6,44,4,9,1.0,1,1,13,2,2,1.0,asocial
01JVR941HYYMM3C2H61Y78CXT6,44,5,9,1.0,4,0,13,2,2,1.0,asocial
01JVR941HYYMM3C2H61Y78CXT6,44,6,9,1.0,6,0,51,5,2,1.0,asocial
01JVR941HYYMM3C2H61Y78CXT6,44,7,9,1.0,0,1,43,2,2,1.0,asocial
01JVR941HYYMM3C2H61Y78CXT6,44,8,9,1.0,3,1,39,8,2,1.0,asocial
01JVR941HYYMM3C2H61Y78CXT6,44,9,9,1.0,8,1,9,1,2,1.0,asocial
01JVR941HYYMM3C2H61Y78CXT6,45,0,3,1.0,4,0,46,7,9,1.0,asocial
01JVR941HYYMM3C2H61Y78CXT6,45,1,3,1.0,4,0,113,9,9,1.0,asocial
01JVR941HYYMM3C2H61Y78CXT6,45,2,3,1.0,5,0,46,6,9,1.0,asocial
01JVR941HYYMM3C2H61Y78CXT6,45,3,3,1.0,4,0,16,2,9,1.0,asocial
01JVR941HYYMM3C2H61Y78CXT6,45,4,3,1.0,1,1,13,3,9,1.0,asocial
01JVR941HYYMM3C2H61Y78CXT6,45,5,3,1.0,4,0,13,2,9,1.0,asocial
01JVR941HYYMM3C2H61Y78CXT6,45,6,3,1.0,6,0,52,5,9,1.0,asocial
01JVR941HYYMM3C2H61Y78CXT6,45,7,3,1.0,0,1,44,2,9,1.0,asocial
01JVR941HYYMM3C2H61Y78CXT6,45,8,3,1.0,3,1,40,8,9,1.0,asocial
01JVR941HYYMM3C2H61Y78CXT6,45,9,3,1.0,9,1,10,1,9,1.0,asocial
01JVR941HYYMM3C2H61Y78CXT6,46,0,5,1.0,4,0,47,7,3,1.0,asocial
01JVR941HYYMM3C2H61Y78CXT6,46,1,5,1.0,4,0,115,9,3,1.0,asocial
01JVR941HYYMM3C2H61Y78CXT6,46,2,5,1.0,5,0,47,6,3,1.0,asocial
01JVR941HYYMM3C2H61Y78CXT6,46,3,5,1.0,5,0,17,2,3,1.0,asocial
01JVR941HYYMM3C2H61Y78CXT6,46,4,5,1.0,1,1,13,4,3,1.0,asocial
01JVR941HYYMM3C2H61Y78CXT6,46,5,5,1.0,4,0,13,2,3,1.0,asocial
01JVR941HYYMM3C2H61Y78CXT6,46,6,5,1.0,6,0,53,6,3,1.0,asocial
01JVR941HYYMM3C2H61Y78CXT6,46,7,5,1.0,0,1,45,2,3,1.0,asocial
01JVR941HYYMM3C2H61Y78CXT6,46,8,5,1.0,3,1,41,8,3,1.0,asocial
01JVR941HYYMM3C2H61Y78CXT6,46,9,5,1.0,9,1,10,1,3,1.0,asocial
01JVR941HYYMM3C2H61Y78CXT6,47,0,1,1.0,4,0,48,7,5,1.0,asocial
01JVR941HYYMM3C2H61Y78CXT6,47,1,1,1.0,4,0,117,9,5,1.0,asocial
01JVR941HYYMM3C2H61Y78CXT6,47,2,1,1.0,5,0,49,6,5,1.0,asocial
01JVR941HYYMM3C2H61Y78CXT6,47,3,1,1.0,5,0,17,2,5,1.0,asocial
01JVR941HYYMM3C2H61Y78CXT6,47,4,1,1.0,1,1,13,4,5,1.0,asocial
01JVR941HYYMM3C2H61Y78CXT6,47,5,1,1.0,5,0,14,2,5,1.0,asocial
01JVR941HYYMM3C2H61Y78CXT6,47,6,1,1.0,6,0,54,6,5,1.0,asocial
01JVR941HYYMM3C2H61Y78CXT6,47,7,1,1.0,0,1,46,2,5,1.0,asocial
01JVR941HYYMM3C2H61Y78CXT6,47,8,1,1.0,3,1,43,8,5,1.0,asocial
01JVR941HYYMM3C2H61Y78CXT6,47,9,1,1.0,9,1,10,1,5,1.0,asocial
01JVR941HYYMM3C2H61Y78CXT6,48,0,2,0.0,4,0,49,7,1,1.0,asocial
01JVR941HYYMM3C2H61Y78CXT6,48,1,2,0.0,5,0,120,9,1,1.0,asocial
01JVR941HYYMM3C2H61Y78CXT6,48,2,2,0.0,5,0,51,6,1,1.0,asocial
01JVR941HYYMM3C2H61Y78CXT6,48,3,2,0.0,5,0,17,2,1,1.0,asocial
01JVR941HYYMM3C2H61Y78CXT6,48,4,2,0.0,1,1,13,4,1,1.0,asocial
01JVR941HYYMM3C2H61Y78CXT6,48,5,2,0.0,5,0,14,2,1,1.0,asocial
01JVR941HYYMM3C2H61Y78CXT6,48,6,2,0.0,6,0,55,6,1,1.0,asocial
01JVR941HYYMM3C2H61Y78CXT6,48,7,2,0.0,0,1,47,2,1,1.0,asocial
01JVR941HYYMM3C2H61Y78CXT6,48,8,2,0.0,3,1,45,8,1,1.0,asocial
01JVR941HYYMM3C2H61Y78CXT6,48,9,2,0.0,9,1,10,1,1,1.0,asocial
01JVR941HYYMM3C2H61Y78CXT6,49,0,0,1.0,4,0,50,7,2,0.0,asocial
01JVR941HYYMM3C2H61Y78CXT6,49,1,0,1.0,5,0,122,9,2,0.0,asocial
01JVR941HYYMM3C2H61Y78CXT6,49,2,0,1.0,5,1,53,7,2,0.0,asocial
01JVR941HYYMM3C2H61Y78CXT6,49,3,0,1.0,5,0,17,2,2,0.0,asocial
01JVR941HYYMM3C2H61Y78CXT6,49,4,0,1.0,1,1,13,4,2,0.0,asocial
01JVR941HYYMM3C2H61Y78CXT6,49,5,0,1.0,5,0,14,2,2,0.0,asocial
01JVR941HYYMM3C2H61Y78CXT6,49,6,0,1.0,6,0,56,6,2,0.0,asocial
01JVR941HYYMM3C2H61Y78CXT6,49,7,0,1.0,0,1,48,2,2,0.0,asocial
01JVR941HYYMM3C2H61Y78CXT6,49,8,0,1.0,3,1,47,8,2,0.0,asocial
01JVR941HYYMM3C2H61Y78CXT6,49,9,0,1.0,9,1,10,1,2,0.0,asocial
01JVR941HYYMM3C2H61Y78CXT6,50,0,5,1.0,5,0,52,7,0,1.0,asocial
01JVR941HYYMM3C2H61Y78CXT6,50,1,5,1.0,5,0,124,9,0,1.0,asocial
01JVR941HYYMM3C2H61Y78CXT6,50,2,5,1.0,5,1,55,7,0,1.0,asocial
01JVR941HYYMM3C2H61Y78CXT6,50,3,5,1.0,5,0,17,2,0,1.0,asocial
01JVR941HYYMM3C2H61Y78CXT6,50,4,5,1.0,1,1,13,4,0,1.0,asocial
01JVR941HYYMM3C2H61Y78CXT6,50,5,5,1.0,5,0,14,2,0,1.0,asocial
01JVR941HYYMM3C2H61Y78CXT6,50,6,5,1.0,6,0,57,6,0,1.0,asocial
01JVR941HYYMM3C2H61Y78CXT6,50,7,5,1.0,0,1,49,2,0,1.0,asocial
01JVR941HYYMM3C2H61Y78CXT6,50,8,5,1.0,3,1,49,8,0,1.0,asocial
01JVR941HYYMM3C2H61Y78CXT6,50,9,5,1.0,9,1,10,1,0,1.0,asocial
01JVR941HYYMM3C2H61Y78CXT6,51,0,5,1.0,5,0,53,7,5,1.0,asocial
01JVR941HYYMM3C2H61Y78CXT6,51,1,5,1.0,5,0,125,10,5,1.0,asocial
01JVR941HYYMM3C2H61Y78CXT6,51,2,5,1.0,5,1,57,7,5,1.0,asocial
01JVR941HYYMM3C2H61Y78CXT6,51,3,5,1.0,5,0,17,2,5,1.0,asocial
01JVR941HYYMM3C2H61Y78CXT6,51,4,5,1.0,1,1,13,4,5,1.0,asocial
01JVR941HYYMM3C2H61Y78CXT6,51,5,5,1.0,6,0,15,2,5,1.0,asocial
01JVR941HYYMM3C2H61Y78CXT6,51,6,5,1.0,6,0,58,6,5,1.0,asocial
01JVR941HYYMM3C2H61Y78CXT6,51,7,5,1.0,0,1,50,2,5,1.0,asocial
01JVR941HYYMM3C2H61Y78CXT6,51,8,5,1.0,3,1,51,8,5,1.0,asocial
01JVR941HYYMM3C2H61Y78CXT6,51,9,5,1.0,9,1,10,1,5,1.0,asocial
01JVR94A9PYR966XMPFQCHCWQ4,1,0,8,1.0,0,0,0,0,-1,,asocial
01JVR94A9PYR966XMPFQCHCWQ4,1,1,8,1.0,0,0,0,0,-1,,asocial
01JVR94A9PYR966XMPFQCHCWQ4,1,2,8,1.0,0,0,0,0,-1,,asocial
01JVR94A9PYR966XMPFQCHCWQ4,1,3,8,1.0,0,0,0,0,-1,,asocial
01JVR94A9PYR966XMPFQCHCWQ4,1,4,8,1.0,0,0,0,0,-1,,asocial
01JVR94A9PYR966XMPFQCHCWQ4,1,5,8,1.0,0,0,0,0,-1,,asocial
01JVR94A9PYR966XMPFQCHCWQ4,1,6,8,1.0,0,0,0,0,-1,,asocial
01JVR94A9PYR966XMPFQCHCWQ4,1,7,8,1.0,0,0,0,0,-1,,asocial
01JVR94A9PYR966XMPFQCHCWQ4,1,8,8,1.0,0,0,0,0,-1,,asocial
01JVR94A9PYR966XMPFQCHCWQ4,1,9,8,1.0,0,0,0,0,-1,,asocial
01JVR94A9PYR966XMPFQCHCWQ4,2,0,8,1.0,0,0,1,0,8,1.0,asocial
01JVR94A9PYR966XMPFQCHCWQ4,2,1,8,1.0,0,0,1,0,8,1.0,asocial
01JVR94A9PYR966XMPFQCHCWQ4,2,2,8,1.0,0,0,1,0,8,1.0,asocial
01JVR94A9PYR966XMPFQCHCWQ4,2,3,8,1.0,0,0,1,0,8,1.0,asocial
01JVR94A9PYR966XMPFQCHCWQ4,2,4,8,1.0,0,0,1,0,8,1.0,asocial
01JVR94A9PYR966XMPFQCHCWQ4,2,5,8,1.0,0,0,0,1,8,1.0,asocial
01JVR94A9PYR966XMPFQCHCWQ4,2,6,8,1.0,0,0,1,0,8,1.0,asocial
01JVR94A9PYR966XMPFQCHCWQ4,2,7,8,1.0,0,0,1,0,8,1.0,asocial
01JVR94A9PYR966XMPFQCHCWQ4,2,8,8,1.0,1,0,1,0,8,1.0,asocial
01JVR94A9PYR966XMPFQCHCWQ4,2,9,8,1.0,0,0,1,0,8,1.0,asocial
01JVR94A9PYR966XMPFQCHCWQ4,3,0,8,0.0,0,0,2,0,8,1.0,asocial
01JVR94A9PYR966XMPFQCHCWQ4,3,1,8,0.0,0,0,3,0,8,1.0,asocial
01JVR94A9PYR966XMPFQCHCWQ4,3,2,8,0.0,0,0,2,0,8,1.0,asocial
01JVR94A9PYR966XMPFQCHCWQ4,3,3,8,0.0,0,0,2,0,8,1.0,asocial
01JVR94A9PYR966XMPFQCHCWQ4,3,4,8,0.0,0,0,1,1,8,1.0,asocial
01JVR94A9PYR966XMPFQCHCWQ4,3,5,8,0.0,0,0,0,1,8,1.0,asocial
01JVR94A9PYR966XMPFQCHCWQ4,3,6,8,0.0,0,0,2,0,8,1.0,asocial
01JVR94A9PYR966XMPFQCHCWQ4,3,7,8,0.0,0,0,2,0,8,1.0,asocial
01JVR94A9PYR966XMPFQCHCWQ4,3,8,8,0.0,2,0,2,0,8,1.0,asocial
01JVR94A9PYR966XMPFQCHCWQ4,3,9,8,0.0,0,0,2,0,8,1.0,asocial
01JVR94A9PYR966XMPFQCHCWQ4,4,0,8,1.0,0,0,2,2,8,0.0,asocial
01JVR94A9PYR966XMPFQCHCWQ4,4,1,8,1.0,0,0,3,0,8,0.0,asocial
01JVR94A9PYR966XMPFQCHCWQ4,4,2,8,1.0,0,0,3,0,8,0.0,asocial
01JVR94A9PYR966XMPFQCHCWQ4,4,3,8,1.0,0,0,3,0,8,0.0,asocial
01JVR94A9PYR966XMPFQCHCWQ4,4,4,8,1.0,0,0,2,1,8,0.0,asocial
01JVR94A9PYR966XMPFQCHCWQ4,4,5,8,1.0,0,0,0,1,8,0.0,asocial
01JVR94A9PYR966XMPFQCHCWQ4,4,6,8,1.0,0,0,3,0,8,0.0,asocial
01JVR94A9PYR966XMPFQCHCWQ4,4,7,8,1.0,0,0,3,0,8,0.0,asocial
01JVR94A9PYR966XMPFQCHCWQ4,4,8,8,1.0,2,1,2,1,8,0.0,asocial
01JVR94A9PYR966XMPFQCHCWQ4,4,9,8,1.0,0,0,3,0,8,0.0,asocial
01JVR94A9PYR966XMPFQCHCWQ4,5,0,8,1.0,0,0,3,2,8,1.0,asocial
01JVR94A9PYR966XMPFQCHCWQ4,5,1,8,1.0,0,0,6,0,8,1.0,asocial
01JVR94A9PYR966XMPFQCHCWQ4,5,2,8,1.0,0,0,4,0,8,1.0,asocial
01JVR94A9PYR966XMPFQCHCWQ4,5,3,8,1.0,0,0,5,0,8,1.0,asocial
01JVR94A9PYR966XMPFQCHCWQ4,5,4,8,1.0,0,0,2,1,8,1.0,asocial
01JVR94A9PYR966XMPFQCHCWQ4,5,5,8,1.0,0,0,0,1,8,1.0,asocial
01JVR94A9PYR966XMPFQCHCWQ4,5,6,8,1.0,0,0,4,0,8,1.0,asocial
01JVR94A9PYR966XMPFQCHCWQ4,5,7,8,1.0,0,0,4,0,8,1.0,asocial
01JVR94A9PYR966XMPFQCHCWQ4,5,8,8,1.0,3,1,3,1,8,1.0,asocial
01JVR94A9PYR966XMPFQCHCWQ4,5,9,8,1.0,0,0,3,0,8,1.0,asocial
01JVR94A9PYR966XMPFQCHCWQ4,6,0,8,0.0,0,0,4,2,8,1.0,asocial
01JVR94A9PYR966XMPFQCHCWQ4,6,1,8,0.0,0,0,9,0,8,1.0,asocial
01JVR94A9PYR966XMPFQCHCWQ4,6,2,8,0.0,0,0,5,0,8,1.0,asocial
01JVR94A9PYR966XMPFQCHCWQ4,6,3,8,0.0,0,0,6,0,8,1.0,asocial
01JVR94A9PYR966XMPFQCHCWQ4,6,4,8,0.0,0,0,2,1,8,1.0,asocial
01JVR94A9PYR966XMPFQCHCWQ4,6,5,8,0.0,0,0,0,1,8,1.0,asocial
01JVR94A9PYR966XMPFQCHCWQ4,6,6,8,0.0,0,0,6,0,8,1.0,asocial
01JVR94A9PYR966XMPFQCHCWQ4,6,7,8,0.0,0,0,5,0,8,1.0,asocial
01JVR94A9PYR966XMPFQCHCWQ4,6,8,8,0.0,4,1,4,1,8,1.0,asocial
01JVR94A9PYR966XMPFQCHCWQ4,6,9,8,0.0,0,0,3,0,8,1.0,asocial
01JVR94A9PYR966XMPFQCHCWQ4,7,0,8,1.0,0,0,5,2,8,0.0,asocial
01JVR94A9PYR966XMPFQCHCWQ4,7,1,8,1.0,0,0,11,1,8,0.0,asocial
01JVR94A9PYR966XMPFQCHCWQ4,7,2,8,1.0,0,0,6,0,8,0.0,asocial
01JVR94A9PYR966XMPFQCHCWQ4,7,3,8,1.0,0,0,7,0,8,0.0,asocial
01JVR94A9PYR966XMPFQCHCWQ4,7,4,8,1.0,0,0,2,1,8,0.0,asocial
01JVR94A9PYR966XMPFQCHCWQ4,7,5,8,1.0,0,0,0,1,8,0.0,asocial
01JVR94A9PYR966XMPFQCHCWQ4,7,6,8,1.0,0,0,7,0,8,0.0,asocial
01JVR94A9PYR966XMPFQCHCWQ4,7,7,8,1.0,0,0,6,0,8,0.0,asocial
01JVR94A9PYR966XMPFQCHCWQ4,7,8,8,1.0,4,2,5,2,8,0.0,asocial
01JVR94A9PYR966XMPFQCHCWQ4,7,9,8,1.0,0,0,3,0,8,0.0,asocial
01JVR94A9PYR966XMPFQCHCWQ4,8,0,8,1.0,0,0,6,2,8,1.0,asocial
01JVR94A9PYR966XMPFQCHCWQ4,8,1,8,1.0,0,0,14,1,8,1.0,asocial
01JVR94A9PYR966XMPFQCHCWQ4,8,2,8,1.0,0,0,7,0,8,1.0,asocial
01JVR94A9PYR966XMPFQCHCWQ4,8,3,8,1.0,0,0,7,0,8,1.0,asocial
01JVR94A9PYR966XMPFQCHCWQ4,8,4,8,1.0,0,0,3,1,8,1.0,asocial
01JVR94A9PYR966XMPFQCHCWQ4,8,5,8,1.0,0,0,0,1,8,1.0,asocial
01JVR94A9PYR966XMPFQCHCWQ4,8,6,8,1.0,0,0,7,1,8,1.0,asocial
01JVR94A9PYR966XMPFQCHCWQ4,8,7,8,1.0,0,0,7,0,8,1.0,asocial
01JVR94A9PYR966XMPFQCHCWQ4,8,8,8,1.0,5,2,6,2,8,1.0,asocial
01JVR94A9PYR966XMPFQCHCWQ4,8,9,8,1.0,0,0,4,0,8,1.0,asocial
01JVR94A9PYR966XMPFQCHCWQ4,9,0,8,1.0,0,0,9,2,8,1.0,asocial
01JVR94A9PYR966XMPFQCHCWQ4,9,1,8,1.0,0,0,17,1,8,1.0,asocial
01JVR94A9PYR966XMPFQCHCWQ4,9,2,8,1.0,0,0,8,0,8,1.0,asocial
01JVR94A9PYR966XMPFQCHCWQ4,9,3,8,1.0,0,0,7,0,8,1.0,asocial
01JVR94A9PYR966XMPFQCHCWQ4,9,4,8,1.0,0,0,3,1,8,1.0,asocial
01JVR94A9PYR966XMPFQCHCWQ4,9,5,8,1.0,0,0,0,1,8,1.0,asocial
01JVR94A9PYR966XMPFQCHCWQ4,9,6,8,1.0,0,0,8,1,8,1.0,asocial
01JVR94A9PYR966XMPFQCHCWQ4,9,7,8,1.0,0,0,8,0,8,1.0,asocial
01JVR94A9PYR966XMPFQCHCWQ4,9,8,8,1.0,6,2,7,2,8,1.0,asocial
01JVR94A9PYR966XMPFQCHCWQ4,9,9,8,1.0,0,0,4,0,8,1.0,asocial
01JVR94A9PYR966XMPFQCHCWQ4,10,0,8,1.0,0,0,10,2,8,1.0,asocial
01JVR94A9PYR966XMPFQCHCWQ4,10,1,8,1.0,0,0,19,2,8,1.0,asocial
01JVR94A9PYR966XMPFQCHCWQ4,10,2,8,1.0,0,0,9,0,8,1.0,asocial
01JVR94A9PYR966XMPFQCHCWQ4,10,3,8,1.0,0,0,8,0,8,1.0,asocial
01JVR94A9PYR966XMPFQCHCWQ4,10,4,8,1.0,0,0,3,2,8,1.0,asocial
01JVR94A9PYR966XMPFQCHCWQ4,10,5,8,1.0,0,0,0,1,8,1.0,asocial
01JVR94A9PYR966XMPFQCHCWQ4,10,6,8,1.0,0,0,9,1,8,1.0,asocial
01JVR94A9PYR966XMPFQCHCWQ4,10,7,8,1.0,0,0,9,0,8,1.0,asocial
01JVR94A9PYR966XMPFQCHCWQ4,10,8,8,1.0,7,2,8,2,8,1.0,asocial
01JVR94A9PYR966XMPFQCHCWQ4,10,9,8,1.0,0,0,4,0,8,1.0,asocial
01JVR94A9PYR966XMPFQCHCWQ4,11,0,8,0.0,0,0,11,2,8,1.0,asocial
01JVR94A9PYR966XMPFQCHCWQ4,11,1,8,0.0,0,0,22,2,8,1.0,asocial
01JVR94A9PYR966XMPFQCHCWQ4,11,2,8,0.0,0,0,10,0,8,1.0,asocial
01JVR94A9PYR966XMPFQCHCWQ4,11,3,8,0.0,0,0,8,1,8,1.0,asocial
01JVR94A9PYR966XMPFQCHCWQ4,11,4,8,0.0,0,0,3,2,8,1.0,asocial
01JVR94A9PYR966XMPFQCHCWQ4,11,5,8,0.0,0,0,0,1,8,1.0,asocial
01JVR94A9PYR966XMPFQCHCWQ4,11,6,8,0.0,0,0,10,1,8,1.0,asocial
01JVR94A9PYR966XMPFQCHCWQ4,11,7,8,0.0,0,0,10,0,8,1.0,asocial
01JVR94A9PYR966XMPFQCHCWQ4,11,8,8,0.0,8,2,10,2,8,1.0,asocial
01JVR94A9PYR966XMPFQCHCWQ4,11,9,8,0.0,0,0,4,0,8,1.0,asocial
01JVR94A9PYR966XMPFQCHCWQ4,12,0,8,0.0,0,0,12,2,8,0.0,asocial
01JVR94A9PYR966XMPFQCHCWQ4,12,1,8,0.0,0,0,25,2,8,0.0,asocial
01JVR94A9PYR966XMPFQCHCWQ4,12,2,8,0.0,0,0,11,0,8,0.0,asocial
01JVR94A9PYR966XMPFQCHCWQ4,12,3,8,0.0,0,0,9,1,8,0.0,asocial
01JVR94A9PYR966XMPFQCHCWQ4,12,4,8,0.0,0,0,3,2,8,0.0,asocial
01JVR94A9PYR966XMPFQCHCWQ4,12,5,8,0.0,0,0,1,1,8,0.0,asocial
01JVR94A9PYR966XMPFQCHCWQ4,12,6,8,0.0,0,0,11,1,8,0.0,asocial
01JVR94A9PYR966XMPFQCHCWQ4,12,7,8,0.0,0,0,11,0,8,0.0,asocial
01JVR94A9PYR966XMPFQCHCWQ4,12,8,8,0.0,8,3,10,3,8,0.0,asocial
01JVR94A9PYR966XMPFQCHCWQ4,12,9,8,0.0,0,0,4,0,8,0.0,asocial
01JVR94A9PYR966XMPFQCHCWQ4,13,0,8,1.0,0,0,13,2,8,0.0,asocial
01JVR94A9PYR966XMPFQCHCWQ4,13,1,8,1.0,0,0,28,2,8,0.0,asocial
01JVR94A9PYR966XMPFQCHCWQ4,13,2,8,1.0,0,0,12,0,8,0.0,asocial
01JVR94A9PYR966XMPFQCHCWQ4,13,3,8,1.0,0,0,9,1,8,0.0,asocial
01JVR94A9PYR966XMPFQCHCWQ4,13,4,8,1.0,0,0,3,2,8,0.0,asocial
01JVR94A9PYR966XMPFQCHCWQ4,13,5,8,1.0,0,0,2,1,8,0.0,asocial
01JVR94A9PYR966XMPFQCHCWQ4,13,6,8,1.0,0,0,13,1,8,0.0,asocial
01JVR94A9PYR966XMPFQCHCWQ4,13,7,8,1.0,0,0,12,0,8,0.0,asocial
01JVR94A9PYR966XMPFQCHCWQ4,13,8,8,1.0,8,4,10,4,8,0.0,asocial
01JVR94A9PYR966XMPFQCHCWQ4,13,9,8,1.0,0,0,4,0,8,0.0,asocial
01JVR94A9PYR966XMPFQCHCWQ4,14,0,8,1.0,0,0,14,2,8,1.0,asocial
01JVR94A9PYR966XMPFQCHCWQ4,14,1,8,1.0,0,0,32,2,8,1.0,asocial
01JVR94A9PYR966XMPFQCHCWQ4,14,2,8,1.0,0,0,13,1,8,1.0,asocial
01JVR94A9PYR966XMPFQCHCWQ4,14,3,8,1.0,0,0,9,1,8,1.0,asocial
01JVR94A9PYR966XMPFQCHCWQ4,14,4,8,1.0,0,0,3,2,8,1.0,asocial
01JVR94A9PYR966XMPFQCHCWQ4,14,5,8,1.0,0,0,2,1,8,1.0,asocial
01JVR94A9PYR966XMPFQCHCWQ4,14,6,8,1.0,0,0,14,1,8,1.0,asocial
01JVR94A9PYR966XMPFQCHCWQ4,14,7,8,1.0,0,0,13,0,8,1.0,asocial
01JVR94A9PYR966XMPFQCHCWQ4,14,8,8,1.0,9,4,11,4,8,1.0,asocial
01JVR94A9PYR966XMPFQCHCWQ4,14,9,8,1.0,0,0,4,0,8,1.0,asocial
01JVR94A9PYR966XMPFQCHCWQ4,15,0,8,1.0,0,0,15,2,8,1.0,asocial
01JVR94A9PYR966XMPFQCHCWQ4,15,1,8,1.0,0,0,36,2,8,1.0,asocial
01JVR94A9PYR966XMPFQCHCWQ4,15,2,8,1.0,0,0,14,1,8,1.0,asocial
01JVR94A9PYR966XMPFQCHCWQ4,15,3,8,1.0,0,0,9,1,8,1.0,asocial
01JVR94A9PYR966XMPFQCHCWQ4,15,4,8,1.0,0,0,3,2,8,1.0,asocial
01JVR94A9PYR966XMPFQCHCWQ4,15,5,8,1.0,0,0,2,1,8,1.0,asocial
01JVR94A9PYR966XMPFQCHCWQ4,15,6,8,1.0,0,0,15,1,8,1.0,asocial
01JVR94A9PYR966XMPFQCHCWQ4,15,7,8,1.0,0,0,15,0,8,1.0,asocial
01JVR94A9PYR966XMPFQCHCWQ4,15,8,8,1.0,10,4,12,4,8,1.0,asocial
01JVR94A9PYR966XMPFQCHCWQ4,15,9,8,1.0,0,0,4,0,8,1.0,asocial
01JVR94A9PYR966XMPFQCHCWQ4,16,0,8,1.0,0,0,16,2,8,1.0,asocial
01JVR94A9PYR966XMPFQCHCWQ4,16,1,8,1.0,0,0,39,2,8,1.0,asocial
01JVR94A9PYR966XMPFQCHCWQ4,16,2,8,1.0,0,0,15,1,8,1.0,asocial
01JVR94A9PYR966XMPFQCHCWQ4,16,3,8,1.0,0,0,9,1,8,1.0,asocial
01JVR94A9PYR966XMPFQCHCWQ4,16,4,8,1.0,0,0,3,2,8,1.0,asocial
01JVR94A9PYR966XMPFQCHCWQ4,16,5,8,1.0,0,0,2,1,8,1.0,asocial
01JVR94A9PYR966XMPFQCHCWQ4,16,6,8,1.0,0,0,16,1,8,1.0,asocial
01JVR94A9PYR966XMPFQCHCWQ4,16,7,8,1.0,0,0,16,0,8,1.0,asocial
01JVR94A9PYR966XMPFQCHCWQ4,16,8,8,1.0,11,4,13,4,8,1.0,asocial
01JVR94A9PYR966XMPFQCHCWQ4,16,9,8,1.0,0,0,6,0,8,1.0,asocial
01JVR94A9PYR966XMPFQCHCWQ4,17,0,8,0.0,0,0,17,2,8,1.0,asocial
01JVR94A9PYR966XMPFQCHCWQ4,17,1,8,0.0,0,0,41,3,8,1.0,asocial
01JVR94A9PYR966XMPFQCHCWQ4,17,2,8,0.0,0,0,17,1,8,1.0,asocial
01JVR94A9PYR966XMPFQCHCWQ4,17,3,8,0.0,0,0,9,1,8,1.0,asocial
01JVR94A9PYR966XMPFQCHCWQ4,17,4,8,0.0,0,0,3,2,8,1.0,asocial
01JVR94A9PYR966XMPFQCHCWQ4,17,5,8,0.0,0,0,2,1,8,1.0,asocial
01JVR94A9PYR966XMPFQCHCWQ4,17,6,8,0.0,0,0,17,1,8,1.0,asocial
01JVR94A9PYR966XMPFQCHCWQ4,17,7,8,0.0,0,0,17,0,8,1.0,asocial
01JVR94A9PYR966XMPFQCHCWQ4,17,8,8,0.0,12,4,15,4,8,1.0,asocial
01JVR94A9PYR966XMPFQCHCWQ4,17,9,8,0.0,0,0,6,0,8,1.0,asocial
01JVR94A9PYR966XMPFQCHCWQ4,18,0,8,1.0,0,0,18,2,8,0.0,asocial
01JVR94A9PYR966XMPFQCHCWQ4,18,1,8,1.0,0,0,44,3,8,0.0,asocial
01JVR94A9PYR966XMPFQCHCWQ4,18,2,8,1.0,0,0,19,1,8,0.0,asocial
01JVR94A9PYR966XMPFQCHCWQ4,18,3,8,1.0,0,0,9,1,8,0.0,asocial
01JVR94A9PYR966XMPFQCHCWQ4,18,4,8,1.0,0,0,3,2,8,0.0,asocial
01JVR94A9PYR966XMPFQCHCWQ4,18,5,8,1.0,0,0,2,1,8,0.0,asocial
01JVR94A9PYR966XMPFQCHCWQ4,18,6,8,1.0,0,0,19,1,8,0.0,asocial
01JVR94A9PYR966XMPFQCHCWQ4,18,7,8,1.0,0,0,18,0,8,0.0,asocial
01JVR94A9PYR966XMPFQCHCWQ4,18,8,8,1.0,12,5,15,5,8,0.0,asocial
01JVR94A9PYR966XMPFQCHCWQ4,18,9,8,1.0,0,0,6,0,8,0.0,asocial
01JVR94A9PYR966XMPFQCHCWQ4,19,0,8,1.0,0,0,19,2,8,1.0,asocial
01JVR94A9PYR966XMPFQCHCWQ4,19,1,8,1.0,0,0,46,4,8,1.0,asocial
01JVR94A9PYR966XMPFQCHCWQ4,19,2,8,1.0,0,0,21,1,8,1.0,asocial
01JVR94A9PYR966XMPFQCHCWQ4,19,3,8,1.0,0,0,9,1,8,1.0,asocial
01JVR94A9PYR966XMPFQCHCWQ4,19,4,8,1.0,0,0,3,2,8,1.0,asocial
01JVR94A9PYR966XMPFQCHCWQ4,19,5,8,1.0,0,0,2,1,8,1.0,asocial
01JVR94A9PYR966XMPFQCHCWQ4,19,6,8,1.0,0,0,20,1,8,1.0,asocial
01JVR94A9PYR966XMPFQCHCWQ4,19,7,8,1.0,0,0,19,1,8,1.0,asocial
01JVR94A9PYR966XMPFQCHCWQ4,19,8,8,1.0,13,5,16,5,8,1.0,asocial
01JVR94A9PYR966XMPFQCHCWQ4,19,9,8,1.0,0,0,6,0,8,1.0,asocial
01JVR94A9PYR966XMPFQCHCWQ4,20,0,8,1.0,0,0,19,3,8,1.0,asocial
01JVR94A9PYR966XMPFQCHCWQ4,20,1,8,1.0,0,0,49,4,8,1.0,asocial
01JVR94A9PYR966XMPFQCHCWQ4,20,2,8,1.0,0,0,22,1,8,1.0,asocial
01JVR94A9PYR966XMPFQCHCWQ4,20,3,8,1.0,0,0,10,1,8,1.0,asocial
01JVR94A9PYR966XMPFQCHCWQ4,20,4,8,1.0,0,0,3,2,8,1.0,asocial
01JVR94A9PYR966XMPFQCHCWQ4,20,5,8,1.0,0,0,2,1,8,1.0,asocial
01JVR94A9PYR966XMPFQCHCWQ4,20,6,8,1.0,0,0,22,1,8,1.0,asocial
01JVR94A9PYR966XMPFQCHCWQ4,20,7,8,1.0,0,0,20,1,8,1.0,asocial
01JVR94A9PYR966XMPFQCHCWQ4,20,8,8,1.0,14,5,17,5,8,1.0,asocial
01JVR94A9PYR966XMPFQCHCWQ4,20,9,8,1.0,0,0,6,0,8,1.0,asocial
01JVR94A9PYR966XMPFQCHCWQ4,21,0,8,1.0,0,0,20,3,8,1.0,asocial
01JVR94A9PYR966XMPFQCHCWQ4,21,1,8,1.0,0,0,52,4,8,1.0,asocial
01JVR94A9PYR966XMPFQCHCWQ4,21,2,8,1.0,0,0,23,1,8,1.0,asocial
01JVR94A9PYR966XMPFQCHCWQ4,21,3,8,1.0,0,0,11,1,8,1.0,asocial
01JVR94A9PYR966XMPFQCHCWQ4,21,4,8,1.0,0,0,3,2,8,1.0,asocial
01JVR94A9PYR966XMPFQCHCWQ4,21,5,8,1.0,0,0,2,1,8,1.0,asocial
01JVR94A9PYR966XMPFQCHCWQ4,21,6,8,1.0,0,0,23,1,8,1.0,asocial
01JVR94A9PYR966XMPFQCHCWQ4,21,7,8,1.0,0,0,21,1,8,1.0,asocial
01JVR94A9PYR966XMPFQCHCWQ4,21,8,8,1.0,15,5,19,5,8,1.0,asocial
01JVR94A9PYR966XMPFQCHCWQ4,21,9,8,1.0,0,0,6,0,8,1.0,asocial
01JVR94A9PYR966XMPFQCHCWQ4,22,0,8,1.0,0,0,20,4,8,1.0,asocial
01JVR94A9PYR966XMPFQCHCWQ4,22,1,8,1.0,0,0,55,4,8,1.0,asocial
01JVR94A9PYR966XMPFQCHCWQ4,22,2,8,1.0,0,0,24,1,8,1.0,asocial
01JVR94A9PYR966XMPFQCHCWQ4,22,3,8,1.0,0,0,12,1,8,1.0,asocial
01JVR94A9PYR966XMPFQCHCWQ4,22,4,8,1.0,0,0,4,2,8,1.0,asocial
01JVR94A9PYR966XMPFQCHCWQ4,22,5,8,1.0,0,0,2,1,8,1.0,asocial
01JVR94A9PYR966XMPFQCHCWQ4,22,6,8,1.0,0,0,24,1,8,1.0,asocial
01JVR94A9PYR966XMPFQCHCWQ4,22,7,8,1.0,0,0,22,1,8,1.0,asocial
01JVR94A9PYR966XMPFQCHCWQ4,22,8,8,1.0,16,5,20,5,8,1.0,asocial
01JVR94A9PYR966XMPFQCHCWQ4,22,9,8,1.0,0,0,6,0,8,1.0,asocial
01JVR94A9PYR966XMPFQCHCWQ4,23,0,8,1.0,0,0,21,4,8,1.0,asocial
01JVR94A9PYR966XMPFQCHCWQ4,23,1,8,1.0,0,0,58,4,8,1.0,asocial
01JVR94A9PYR966XMPFQCHCWQ4,23,2,8,1.0,0,0,25,1,8,1.0,asocial
01JVR94A9PYR966XMPFQCHCWQ4,23,3,8,1.0,0,0,13,1,8,1.0,asocial
01JVR94A9PYR966XMPFQCHCWQ4,23,4,8,1.0,0,0,4,2,8,1.0,asocial
01JVR94A9PYR966XMPFQCHCWQ4,23,5,8,1.0,0,0,3,1,8,1.0,asocial
01JVR94A9PYR966XMPFQCHCWQ4,23,6,8,1.0,0,0,25,1,8,1.0,asocial
01JVR94A9PYR966XMPFQCHCWQ4,23,7,8,1.0,0,0,23,1,8,1.0,asocial
01JVR94A9PYR966XMPFQCHCWQ4,23,8,8,1.0,17,5,21,5,8,1.0,asocial
01JVR94A9PYR966XMPFQCHCWQ4,23,9,8,1.0,0,0,6,0,8,1.0,asocial
01JVR94A9PYR966XMPFQCHCWQ4,24,0,8,1.0,0,0,21,5,8,1.0,asocial
01JVR94A9PYR966XMPFQCHCWQ4,24,1,8,1.0,0,0,61,4,8,1.0,asocial
01JVR94A9PYR966XMPFQCHCWQ4,24,2,8,1.0,0,0,26,1,8,1.0,asocial
01JVR94A9PYR966XMPFQCHCWQ4,24,3,8,1.0,0,0,14,2,8,1.0,asocial
01JVR94A9PYR966XMPFQCHCWQ4,24,4,8,1.0,0,0,4,2,8,1.0,asocial
01JVR94A9PYR966XMPFQCHCWQ4,24,5,8,1.0,0,0,3,1,8,1.0,asocial
01JVR94A9PYR966XMPFQCHCWQ4,24,6,8,1.0,0,0,26,1,8,1.0,asocial
01JVR94A9PYR966XMPFQCHCWQ4,24,7,8,1.0,0,0,24,1,8,1.0,asocial
01JVR94A9PYR966XMPFQCHCWQ4,24,8,8,1.0,18,5,22,5,8,1.0,asocial
01JVR94A9PYR966XMPFQCHCWQ4,24,9,8,1.0,0,0,6,0,8,1.0,asocial
01JVR94A9PYR966XMPFQCHCWQ4,25,0,8,1.0,0,0,23,5,8,1.0,asocial
01JVR94A9PYR966XMPFQCHCWQ4,25,1,8,1.0,0,0,64,4,8,1.0,asocial
01JVR94A9PYR966XMPFQCHCWQ4,25,2,8,1.0,0,0,27,1,8,1.0,asocial
01JVR94A9PYR966XMPFQCHCWQ4,25,3,8,1.0,0,0,15,2,8,1.0,asocial
01JVR94A9PYR966XMPFQCHCWQ4,25,4,8,1.0,0,0,4,2,8,1.0,asocial
01JVR94A9PYR966XMPFQCHCWQ4,25,5,8,1.0,0,0,3,1,8,1.0,asocial
01JVR94A9PYR966XMPFQCHCWQ4,25,6,8,1.0,0,0,27,1,8,1.0,asocial
01JVR94A9PYR966XMPFQCHCWQ4,25,7,8,1.0,0,0,25,1,8,1.0,asocial
01JVR94A9PYR966XMPFQCHCWQ4,25,8,8,1.0,19,5,23,5,8,1.0,asocial
01JVR94A9PYR966XMPFQCHCWQ4,25,9,8,1.0,0,0,6,0,8,1.0,asocial
01JVR94A9PYR966XMPFQCHCWQ4,26,0,8,1.0,0,0,24,5,8,1.0,asocial
01JVR94A9PYR966XMPFQCHCWQ4,26,1,8,1.0,0,0,69,4,8,1.0,asocial
01JVR94A9PYR966XMPFQCHCWQ4,26,2,8,1.0,0,0,28,1,8,1.0,asocial
01JVR94A9PYR966XMPFQCHCWQ4,26,3,8,1.0,0,0,15,2,8,1.0,asocial
01JVR94A9PYR966XMPFQCHCWQ4,26,4,8,1.0,0,0,4,2,8,1.0,asocial
01JVR94A9PYR966XMPFQCHCWQ4,26,5,8,1.0,0,0,3,1,8,1.0,asocial
01JVR94A9PYR966XMPFQCHCWQ4,26,6,8,1.0,0,0,28,1,8,1.0,asocial
01JVR94A9PYR966XMPFQCHCWQ4,26,7,8,1.0,0,0,26,1,8,1.0,asocial
01JVR94A9PYR966XMPFQCHCWQ4,26,8,8,1.0,20,5,24,5,8,1.0,asocial
01JVR94A9PYR966XMPFQCHCWQ4,26,9,8,1.0,0,0,6,0,8,1.0,asocial
01JVR94A9PYR966XMPFQCHCWQ4,27,0,8,1.0,0,0,25,5,8,1.0,asocial
01JVR94A9PYR966XMPFQCHCWQ4,27,1,8,1.0,0,0,72,5,8,1.0,asocial
01JVR94A9PYR966XMPFQCHCWQ4,27,2,8,1.0,0,0,30,1,8,1.0,asocial
01JVR94A9PYR966XMPFQCHCWQ4,27,3,8,1.0,0,0,15,2,8,1.0,asocial
01JVR94A9PYR966XMPFQCHCWQ4,27,4,8,1.0,0,0,4,2,8,1.0,asocial
01JVR94A9PYR966XMPFQCHCWQ4,27,5,8,1.0,0,0,3,1,8,1.0,asocial
01JVR94A9PYR966XMPFQCHCWQ4,27,6,8,1.0,0,0,29,1,8,1.0,asocial
01JVR94A9PYR966XMPFQCHCWQ4,27,7,8,1.0,0,0,27,1,8,1.0,asocial
01JVR94A9PYR966XMPFQCHCWQ4,27,8,8,1.0,21,5,25,5,8,1.0,asocial
01JVR94A9PYR966XMPFQCHCWQ4,27,9,8,1.0,0,0,6,0,8,1.0,asocial
01JVR94A9PYR966XMPFQCHCWQ4,28,0,8,1.0,0,0,26,5,8,1.0,asocial
01JVR94A9PYR966XMPFQCHCWQ4,28,1,8,1.0,0,0,75,5,8,1.0,asocial
01JVR94A9PYR966XMPFQCHCWQ4,28,2,8,1.0,0,0,31,1,8,1.0,asocial
01JVR94A9PYR966XMPFQCHCWQ4,28,3,8,1.0,0,0,15,2,8,1.0,asocial
01JVR94A9PYR966XMPFQCHCWQ4,28,4,8,1.0,0,0,4,2,8,1.0,asocial
01JVR94A9PYR966XMPFQCHCWQ4,28,5,8,1.0,0,0,3,1,8,1.0,asocial
01JVR94A9PYR966XMPFQCHCWQ4,28,6,8,1.0,0,0,32,1,8,1.0,asocial
01JVR94A9PYR966XMPFQCHCWQ4,28,7,8,1.0,0,0,28,1,8,1.0,asocial
01JVR94A9PYR966XMPFQCHCWQ4,28,8,8,1.0,22,5,26,5,8,1.0,asocial
01JVR94A9PYR966XMPFQCHCWQ4,28,9,8,1.0,0,0,6,0,8,1.0,asocial
01JVR94A9PYR966XMPFQCHCWQ4,29,0,8,1.0,0,0,28,5,8,1.0,asocial
01JVR94A9PYR966XMPFQCHCWQ4,29,1,8,1.0,0,0,78,5,8,1.0,asocial
01JVR94A9PYR966XMPFQCHCWQ4,29,2,8,1.0,0,0,32,1,8,1.0,asocial
01JVR94A9PYR966XMPFQCHCWQ4,29,3,8,1.0,0,0,15,2,8,1.0,asocial
01JVR94A9PYR966XMPFQCHCWQ4,29,4,8,1.0,0,0,4,2,8,1.0,asocial
01JVR94A9PYR966XMPFQCHCWQ4,29,5,8,1.0,0,0,3,1,8,1.0,asocial
01JVR94A9PYR966XMPFQCHCWQ4,29,6,8,1.0,0,0,34,1,8,1.0,asocial
01JVR94A9PYR966XMPFQCHCWQ4,29,7,8,1.0,0,0,29,1,8,1.0,asocial
01JVR94A9PYR966XMPFQCHCWQ4,29,8,8,1.0,23,5,27,5,8,1.0,asocial
01JVR94A9PYR966XMPFQCHCWQ4,29,9,8,1.0,0,0,6,0,8,1.0,asocial
01JVR94A9PYR966XMPFQCHCWQ4,30,0,8,1.0,0,0,29,5,8,1.0,asocial
01JVR94A9PYR966XMPFQCHCWQ4,30,1,8,1.0,0,0,81,5,8,1.0,asocial
01JVR94A9PYR966XMPFQCHCWQ4,30,2,8,1.0,0,0,33,1,8,1.0,asocial
01JVR94A9PYR966XMPFQCHCWQ4,30,3,8,1.0,0,0,15,2,8,1.0,asocial
01JVR94A9PYR966XMPFQCHCWQ4,30,4,8,1.0,0,0,4,2,8,1.0,asocial
01JVR94A9PYR966XMPFQCHCWQ4,30,5,8,1.0,0,0,3,1,8,1.0,asocial
01JVR94A9PYR966XMPFQCHCWQ4,30,6,8,1.0,0,0,36,1,8,1.0,asocial
01JVR94A9PYR966XMPFQCHCWQ4,30,7,8,1.0,0,0,30,1,8,1.0,asocial
01JVR94A9PYR966XMPFQCHCWQ4,30,8,8,1.0,24,5,28,5,8,1.0,asocial
01JVR94A9PYR966XMPFQCHCWQ4,30,9,8,1.0,0,0,7,0,8,1.0,asocial
01JVR94A9PYR966XMPFQCHCWQ4,31,0,8,1.0,0,0,30,5,8,1.0,asocial
01JVR94A9PYR966XMPFQCHCWQ4,31,1,8,1.0,0,0,83,6,8,1.0,asocial
01JVR94A9PYR966XMPFQCHCWQ4,31,2,8,1.0,0,0,34,1,8,1.0,asocial
01JVR94A9PYR966XMPFQCHCWQ4,31,3,8,1.0,0,0,15,2,8,1.0,asocial
01JVR94A9PYR966XMPFQCHCWQ4,31,4,8,1.0,0,0,4,2,8,1.0,asocial
01JVR94A9PYR966XMPFQCHCWQ4,31,5,8,1.0,0,0,3,1,8,1.0,asocial
01JVR94A9PYR966XMPFQCHCWQ4,31,6,8,1.0,0,0,38,1,8,1.0,asocial
01JVR94A9PYR966XMPFQCHCWQ4,31,7,8,1.0,0,0,31,1,8,1.0,asocial
01JVR94A9PYR966XMPFQCHCWQ4,31,8,8,1.0,25,5,29,6,8,1.0,asocial
01JVR94A9PYR966XMPFQCHCWQ4,31,9,8,1.0,0,0,7,0,8,1.0,asocial
01JVR94A9PYR966XMPFQCHCWQ4,32,0,8,0.0,0,0,31,5,8,1.0,asocial
01JVR94A9PYR966XMPFQCHCWQ4,32,1,8,0.0,0,0,85,7,8,1.0,asocial
01JVR94A9PYR966XMPFQCHCWQ4,32,2,8,0.0,0,0,35,1,8,1.0,asocial
01JVR94A9PYR966XMPFQCHCWQ4,32,3,8,0.0,0,0,16,2,8,1.0,asocial
01JVR94A9PYR966XMPFQCHCWQ4,32,4,8,0.0,0,0,4,2,8,1.0,asocial
01JVR94A9PYR966XMPFQCHCWQ4,32,5,8,0.0,0,0,3,1,8,1.0,asocial
01JVR94A9PYR966XMPFQCHCWQ4,32,6,8,0.0,0,0,40,1,8,1.0,asocial
01JVR94A9PYR966XMPFQCHCWQ4,32,7,8,0.0,0,0,32,1,8,1.0,asocial
01JVR94A9PYR966XMPFQCHCWQ4,32,8,8,0.0,26,5,30,6,8,1.0,asocial
01JVR94A9PYR966XMPFQCHCWQ4,32,9,8,0.0,0,0,7,0,8,1.0,asocial
01JVR94A9PYR966XMPFQCHCWQ4,33,0,8,1.0,0,0,32,5,8,0.0,asocial
01JVR94A9PYR966XMPFQCHCWQ4,33,1,8,1.0,0,0,87,8,8,0.0,asocial
01JVR94A9PYR966XMPFQCHCWQ4,33,2,8,1.0,0,0,35,2,8,0.0,asocial
01JVR94A9PYR966XMPFQCHCWQ4,33,3,8,1.0,0,0,16,2,8,0.0,asocial
01JVR94A9PYR966XMPFQCHCWQ4,33,4,8,1.0,0,0,4,2,8,0.0,asocial
01JVR94A9PYR966XMPFQCHCWQ4,33,5,8,1.0,0,0,3,1,8,0.0,asocial
01JVR94A9PYR966XMPFQCHCWQ4,33,6,8,1.0,0,0,40,3,8,0.0,asocial
01JVR94A9PYR966XMPFQCHCWQ4,33,7,8,1.0,0,0,33,1,8,0.0,asocial
01JVR94A9PYR966XMPFQCHCWQ4,33,8,8,1.0,26,6,30,7,8,0.0,asocial
01JVR94A9PYR966XMPFQCHCWQ4,33,9,8,1.0,0,0,8,0,8,0.0,asocial
01JVR94A9PYR966XMPFQCHCWQ4,34,0,8,0.0,0,0,33,5,8,1.0,asocial
01JVR94A9PYR966XMPFQCHCWQ4,34,1,8,0.0,0,0,90,8,8,1.0,asocial
01JVR94A9PYR966XMPFQCHCWQ4,34,2,8,0.0,0,0,35,3,8,1.0,asocial
01JVR94A9PYR966XMPFQCHCWQ4,34,3,8,0.0,0,0,16,2,8,1.0,asocial
01JVR94A9PYR966XMPFQCHCWQ4,34,4,8,0.0,0,0,4,2,8,1.0,asocial
01JVR94A9PYR966XMPFQCHCWQ4,34,5,8,0.0,0,0,5,1,8,1.0,asocial
01JVR94A9PYR966XMPFQCHCWQ4,34,6,8,0.0,0,0,41,3,8,1.0,asocial
01JVR94A9PYR966XMPFQCHCWQ4,34,7,8,0.0,0,0,34,1,8,1.0,asocial
01JVR94A9PYR966XMPFQCHCWQ4,34,8,8,0.0,27,6,31,7,8,1.0,asocial
01JVR94A9PYR966XMPFQCHCWQ4,34,9,8,0.0,0,0,8,0,8,1.0,asocial
01JVR94A9PYR966XMPFQCHCWQ4,35,0,8,1.0,0,0,34,5,8,0.0,asocial
01JVR94A9PYR966XMPFQCHCWQ4,35,1,8,1.0,0,0,94,8,8,0.0,asocial
01JVR94A9PYR966XMPFQCHCWQ4,35,2,8,1.0,0,0,36,3,8,0.0,asocial
01JVR94A9PYR966XMPFQCHCWQ4,35,3,8,1.0,0,0,16,2,8,0.0,asocial
01JVR94A9PYR966XMPFQCHCWQ4,35,4,8,1.0,0,0,4,2,8,0.0,asocial
01JVR94A9PYR966XMPFQCHCWQ4,35,5,8,1.0,0,0,6,1,8,0.0,asocial
01JVR94A9PYR966XMPFQCHCWQ4,35,6,8,1.0,0,0,42,3,8,0.0,asocial
01JVR94A9PYR966XMPFQCHCWQ4,35,7,8,1.0,0,0,35,1,8,0.0,asocial
01JVR94A9PYR966XMPFQCHCWQ4,35,8,8,1.0,27,7,31,8,8,0.0,asocial
01JVR94A9PYR966XMPFQCHCWQ4,35,9,8,1.0,0,0,8,0,8,0.0,asocial
01JVR94A9PYR966XMPFQCHCWQ4,36,0,8,1.0,0,0,35,5,8,1.0,asocial
01JVR94A9PYR966XMPFQCHCWQ4,36,1,8,1.0,0,0,96,8,8,1.0,asocial
01JVR94A9PYR966XMPFQCHCWQ4,36,2,8,1.0,0,0,36,4,8,1.0,asocial
01JVR94A9PYR966XMPFQCHCWQ4,36,3,8,1.0,0,0,16,2,8,1.0,asocial
01JVR94A9PYR966XMPFQCHCWQ4,36,4,8,1.0,0,0,5,2,8,1.0,asocial
01JVR94A9PYR966XMPFQCHCWQ4,36,5,8,1.0,0,0,7,1,8,1.0,asocial
01JVR94A9PYR966XMPFQCHCWQ4,36,6,8,1.0,0,0,43,3,8,1.0,asocial
01JVR94A9PYR966XMPFQCHCWQ4,36,7,8,1.0,0,0,36,1,8,1.0,asocial
01JVR94A9PYR966XMPFQCHCWQ4,36,8,8,1.0,28,7,32,8,8,1.0,asocial
01JVR94A9PYR966XMPFQCHCWQ4,36,9,8,1.0,0,0,9,0,8,1.0,asocial
01JVR94A9PYR966XMPFQCHCWQ4,37,0,8,1.0,0,0,36,5,8,1.0,asocial
01JVR94A9PYR966XMPFQCHCWQ4,37,1,8,1.0,0,0,98,8,8,1.0,asocial
01JVR94A9PYR966XMPFQCHCWQ4,37,2,8,1.0,0,0,38,4,8,1.0,asocial
01JVR94A9PYR966XMPFQCHCWQ4,37,3,8,1.0,0,0,16,2,8,1.0,asocial
01JVR94A9PYR966XMPFQCHCWQ4,37,4,8,1.0,0,0,6,2,8,1.0,asocial
01JVR94A9PYR966XMPFQCHCWQ4,37,5,8,1.0,0,0,8,1,8,1.0,asocial
01JVR94A9PYR966XMPFQCHCWQ4,37,6,8,1.0,0,0,44,3,8,1.0,asocial
01JVR94A9PYR966XMPFQCHCWQ4,37,7,8,1.0,0,0,37,1,8,1.0,asocial
01JVR94A9PYR966XMPFQCHCWQ4,37,8,8,1.0,29,7,33,8,8,1.0,asocial
01JVR94A9PYR966XMPFQCHCWQ4,37,9,8,1.0,0,0,9,0,8,1.0,asocial
01JVR94A9PYR966XMPFQCHCWQ4,39,0,8,1.0,0,0,38,5,-1,,asocial
01JVR94A9PYR966XMPFQCHCWQ4,39,1,8,1.0,0,0,101,9,-1,,asocial
01JVR94A9PYR966XMPFQCHCWQ4,39,2,8,1.0,0,0,40,4,-1,,asocial
01JVR94A9PYR966XMPFQCHCWQ4,39,3,8,1.0,0,0,16,2,-1,,asocial
01JVR94A9PYR966XMPFQCHCWQ4,39,4,8,1.0,0,0,8,2,-1,,asocial
01JVR94A9PYR966XMPFQCHCWQ4,39,5,8,1.0,0,0,10,1,-1,,asocial
01JVR94A9PYR966XMPFQCHCWQ4,39,6,8,1.0,0,0,46,4,-1,,asocial
01JVR94A9PYR966XMPFQCHCWQ4,39,7,8,1.0,0,0,39,1,-1,,asocial
01JVR94A9PYR966XMPFQCHCWQ4,39,8,8,1.0,30,7,34,8,-1,,asocial
01JVR94A9PYR966XMPFQCHCWQ4,39,9,8,1.0,0,0,9,1,-1,,asocial
01JVR94A9PYR966XMPFQCHCWQ4,40,0,8,1.0,0,0,39,5,8,1.0,asocial
01JVR94A9PYR966XMPFQCHCWQ4,40,1,8,1.0,0,0,103,9,8,1.0,asocial
01JVR94A9PYR966XMPFQCHCWQ4,40,2,8,1.0,0,0,42,4,8,1.0,asocial
01JVR94A9PYR966XMPFQCHCWQ4,40,3,8,1.0,0,0,16,2,8,1.0,asocial
01JVR94A9PYR966XMPFQCHCWQ4,40,4,8,1.0,0,0,9,2,8,1.0,asocial
01JVR94A9PYR966XMPFQCHCWQ4,40,5,8,1.0,0,0,11,1,8,1.0,asocial
01JVR94A9PYR966XMPFQCHCWQ4,40,6,8,1.0,0,0,47,4,8,1.0,asocial
01JVR94A9PYR966XMPFQCHCWQ4,40,7,8,1.0,0,0,40,1,8,1.0,asocial
01JVR94A9PYR966XMPFQCHCWQ4,40,8,8,1.0,31,7,35,8,8,1.0,asocial
01JVR94A9PYR966XMPFQCHCWQ4,40,9,8,1.0,0,0,9,1,8,1.0,asocial
01JVR94A9PYR966XMPFQCHCWQ4,41,0,8,1.0,0,0,40,5,8,1.0,asocial
01JVR94A9PYR966XMPFQCHCWQ4,41,1,8,1.0,0,0,105,9,8,1.0,asocial
01JVR94A9PYR966XMPFQCHCWQ4,41,2,8,1.0,0,0,43,4,8,1.0,asocial
01JVR94A9PYR966XMPFQCHCWQ4,41,3,8,1.0,0,0,16,2,8,1.0,asocial
01JVR94A9PYR966XMPFQCHCWQ4,41,4,8,1.0,0,0,10,2,8,1.0,asocial
01JVR94A9PYR966XMPFQCHCWQ4,41,5,8,1.0,0,0,13,1,8,1.0,asocial
01JVR94A9PYR966XMPFQCHCWQ4,41,6,8,1.0,0,0,48,4,8,1.0,asocial
01JVR94A9PYR966XMPFQCHCWQ4,41,7,8,1.0,0,0,41,1,8,1.0,asocial
01JVR94A9PYR966XMPFQCHCWQ4,41,8,8,1.0,32,7,36,8,8,1.0,asocial
01JVR94A9PYR966XMPFQCHCWQ4,41,9,8,1.0,0,0,9,1,8,1.0,asocial
01JVR94A9PYR966XMPFQCHCWQ4,42,0,8,1.0,0,0,41,5,8,1.0,asocial
01JVR94A9PYR966XMPFQCHCWQ4,42,1,8,1.0,0,0,107,9,8,1.0,asocial
01JVR94A9PYR966XMPFQCHCWQ4,42,2,8,1.0,0,0,43,5,8,1.0,asocial
01JVR94A9PYR966XMPFQCHCWQ4,42,3,8,1.0,0,0,16,2,8,1.0,asocial
01JVR94A9PYR966XMPFQCHCWQ4,42,4,8,1.0,0,0,11,2,8,1.0,asocial
01JVR94A9PYR966XMPFQCHCWQ4,42,5,8,1.0,0,0,13,2,8,1.0,asocial
01JVR94A9PYR966XMPFQCHCWQ4,42,6,8,1.0,0,0,50,4,8,1.0,asocial
01JVR94A9PYR966XMPFQCHCWQ4,42,7,8,1.0,0,0,42,1,8,1.0,asocial
01JVR94A9PYR966XMPFQCHCWQ4,42,8,8,1.0,33,7,37,8,8,1.0,asocial
01JVR94A9PYR966XMPFQCHCWQ4,42,9,8,1.0,0,0,9,1,8,1.0,asocial
01JVR94A9PYR966XMPFQCHCWQ4,43,0,8,1.0,0,0,44,5,8,1.0,asocial
01JVR94A9PYR966XMPFQCHCWQ4,43,1,8,1.0,0,0,109,9,8,1.0,asocial
01JVR94A9PYR966XMPFQCHCWQ4,43,2,8,1.0,0,0,43,6,8,1.0,asocial
01JVR94A9PYR966XMPFQCHCWQ4,43,3,8,1.0,0,0,16,2,8,1.0,asocial
01JVR94A9PYR966XMPFQCHCWQ4,43,4,8,1.0,0,0,12,2,8,1.0,asocial
01JVR94A9PYR966XMPFQCHCWQ4,43,5,8,1.0,0,0,13,2,8,1.0,asocial
01JVR94A9PYR966XMPFQCHCWQ4,43,6,8,1.0,0,0,50,5,8,1.0,asocial
01JVR94A9PYR966XMPFQCHCWQ4,43,7,8,1.0,0,0,43,1,8,1.0,asocial
01JVR94A9PYR966XMPFQCHCWQ4,43,8,8,1.0,34,7,38,8,8,1.0,asocial
01JVR94A9PYR966XMPFQCHCWQ4,43,9,8,1.0,0,0,9,1,8,1.0,asocial
01JVR94A9PYR966XMPFQCHCWQ4,44,0,8,1.0,0,0,46,5,8,1.0,asocial
01JVR94A9PYR966XMPFQCHCWQ4,44,1,8,1.0,0,0,111,9,8,1.0,asocial
01JVR94A9PYR966XMPFQCHCWQ4,44,2,8,1.0,0,0,45,6,8,1.0,asocial
01JVR94A9PYR966XMPFQCHCWQ4,44,3,8,1.0,0,0,16,2,8,1.0,asocial
01JVR94A9PYR966XMPFQCHCWQ4,44,4,8,1.0,0,0,13,2,8,1.0,asocial
01JVR94A9PYR966XMPFQCHCWQ4,44,5,8,1.0,0,0,13,2,8,1.0,asocial
01JVR94A9PYR966XMPFQCHCWQ4,44,6,8,1.0,0,0,51,5,8,1.0,asocial
01JVR94A9PYR966XMPFQCHCWQ4,44,7,8,1.0,0,0,43,2,8,1.0,asocial
01JVR94A9PYR966XMPFQCHCWQ4,44,8,8,1.0,35,7,39,8,8,1.0,asocial
01JVR94A9PYR966XMPFQCHCWQ4,44,9,8,1.0,0,0,9,1,8,1.0,asocial
01JVR94A9PYR966XMPFQCHCWQ4,45,0,8,1.0,0,0,46,7,8,1.0,asocial
01JVR94A9PYR966XMPFQCHCWQ4,45,1,8,1.0,0,0,113,9,8,1.0,asocial
01JVR94A9PYR966XMPFQCHCWQ4,45,2,8,1.0,0,0,46,6,8,1.0,asocial
01JVR94A9PYR966XMPFQCHCWQ4,45,3,8,1.0,0,0,16,2,8,1.0,asocial
01JVR94A9PYR966XMPFQCHCWQ4,45,4,8,1.0,0,0,13,3,8,1.0,asocial
01JVR94A9PYR966XMPFQCHCWQ4,45,5,8,1.0,0,0,13,2,8,1.0,asocial
01JVR94A9PYR966XMPFQCHCWQ4,45,6,8,1.0,0,0,52,5,8,1.0,asocial
01JVR94A9PYR966XMPFQCHCWQ4,45,7,8,1.0,0,0,44,2,8,1.0,asocial
01JVR94A9PYR966XMPFQCHCWQ4,45,8,8,1.0,36,7,40,8,8,1.0,asocial
01JVR94A9PYR966XMPFQCHCWQ4,45,9,8,1.0,0,0,10,1,8,1.0,asocial
01JVR94A9PYR966XMPFQCHCWQ4,46,0,8,1.0,0,0,47,7,8,1.0,asocial
01JVR94A9PYR966XMPFQCHCWQ4,46,1,8,1.0,0,0,115,9,8,1.0,asocial
01JVR94A9PYR966XMPFQCHCWQ4,46,2,8,1.0,0,0,47,6,8,1.0,asocial
01JVR94A9PYR966XMPFQCHCWQ4,46,3,8,1.0,0,0,17,2,8,1.0,asocial
01JVR94A9PYR966XMPFQCHCWQ4,46,4,8,1.0,0,0,13,4,8,1.0,asocial
01JVR94A9PYR966XMPFQCHCWQ4,46,5,8,1.0,0,0,13,2,8,1.0,asocial
01JVR94A9PYR966XMPFQCHCWQ4,46,6,8,1.0,0,0,53,6,8,1.0,asocial
01JVR94A9PYR966XMPFQCHCWQ4,46,7,8,1.0,0,0,45,2,8,1.0,asocial
01JVR94A9PYR966XMPFQCHCWQ4,46,8,8,1.0,37,7,41,8,8,1.0,asocial
01JVR94A9PYR966XMPFQCHCWQ4,46,9,8,1.0,0,0,10,1,8,1.0,asocial
01JVR94A9PYR966XMPFQCHCWQ4,47,0,8,1.0,0,0,48,7,8,1.0,asocial
01JVR94A9PYR966XMPFQCHCWQ4,47,1,8,1.0,0,0,117,9,8,1.0,asocial
01JVR94A9PYR966XMPFQCHCWQ4,47,2,8,1.0,0,0,49,6,8,1.0,asocial
01JVR94A9PYR966XMPFQCHCWQ4,47,3,8,1.0,0,0,17,2,8,1.0,asocial
01JVR94A9PYR966XMPFQCHCWQ4,47,4,8,1.0,0,0,13,4,8,1.0,asocial
01JVR94A9PYR966XMPFQCHCWQ4,47,5,8,1.0,0,0,14,2,8,1.0,asocial
01JVR94A9PYR966XMPFQCHCWQ4,47,6,8,1.0,0,0,54,6,8,1.0,asocial
01JVR94A9PYR966XMPFQCHCWQ4,47,7,8,1.0,0,0,46,2,8,1.0,asocial
01JVR94A9PYR966XMPFQCHCWQ4,47,8,8,1.0,38,7,43,8,8,1.0,asocial
01JVR94A9PYR966XMPFQCHCWQ4,47,9,8,1.0,0,0,10,1,8,1.0,asocial
01JVR94A9PYR966XMPFQCHCWQ4,48,0,8,1.0,0,0,49,7,8,1.0,asocial
01JVR94A9PYR966XMPFQCHCWQ4,48,1,8,1.0,0,0,120,9,8,1.0,asocial
01JVR94A9PYR966XMPFQCHCWQ4,48,2,8,1.0,0,0,51,6,8,1.0,asocial
01JVR94A9PYR966XMPFQCHCWQ4,48,3,8,1.0,0,0,17,2,8,1.0,asocial
01JVR94A9PYR966XMPFQCHCWQ4,48,4,8,1.0,0,0,13,4,8,1.0,asocial
01JVR94A9PYR966XMPFQCHCWQ4,48,5,8,1.0,0,0,14,2,8,1.0,asocial
01JVR94A9PYR966XMPFQCHCWQ4,48,6,8,1.0,0,0,55,6,8,1.0,asocial
01JVR94A9PYR966XMPFQCHCWQ4,48,7,8,1.0,0,0,47,2,8,1.0,asocial
01JVR94A9PYR966XMPFQCHCWQ4,48,8,8,1.0,39,7,45,8,8,1.0,asocial
01JVR94A9PYR966XMPFQCHCWQ4,48,9,8,1.0,0,0,10,1,8,1.0,asocial
01JVR94A9PYR966XMPFQCHCWQ4,49,0,8,1.0,0,0,50,7,8,1.0,asocial
01JVR94A9PYR966XMPFQCHCWQ4,49,1,8,1.0,0,0,122,9,8,1.0,asocial
01JVR94A9PYR966XMPFQCHCWQ4,49,2,8,1.0,0,0,53,7,8,1.0,asocial
01JVR94A9PYR966XMPFQCHCWQ4,49,3,8,1.0,0,0,17,2,8,1.0,asocial
01JVR94A9PYR966XMPFQCHCWQ4,49,4,8,1.0,0,0,13,4,8,1.0,asocial
01JVR94A9PYR966XMPFQCHCWQ4,49,5,8,1.0,0,0,14,2,8,1.0,asocial
01JVR94A9PYR966XMPFQCHCWQ4,49,6,8,1.0,0,0,56,6,8,1.0,asocial
01JVR94A9PYR966XMPFQCHCWQ4,49,7,8,1.0,0,0,48,2,8,1.0,asocial
01JVR94A9PYR966XMPFQCHCWQ4,49,8,8,1.0,40,7,47,8,8,1.0,asocial
01JVR94A9PYR966XMPFQCHCWQ4,49,9,8,1.0,0,0,10,1,8,1.0,asocial
01JVR94A9PYR966XMPFQCHCWQ4,50,0,8,1.0,0,0,52,7,8,1.0,asocial
01JVR94A9PYR966XMPFQCHCWQ4,50,1,8,1.0,0,0,124,9,8,1.0,asocial
01JVR94A9PYR966XMPFQCHCWQ4,50,2,8,1.0,0,0,55,7,8,1.0,asocial
01JVR94A9PYR966XMPFQCHCWQ4,50,3,8,1.0,0,0,17,2,8,1.0,asocial
01JVR94A9PYR966XMPFQCHCWQ4,50,4,8,1.0,0,0,13,4,8,1.0,asocial
01JVR94A9PYR966XMPFQCHCWQ4,50,5,8,1.0,0,0,14,2,8,1.0,asocial
01JVR94A9PYR966XMPFQCHCWQ4,50,6,8,1.0,0,0,57,6,8,1.0,asocial
01JVR94A9PYR966XMPFQCHCWQ4,50,7,8,1.0,0,0,49,2,8,1.0,asocial
01JVR94A9PYR966XMPFQCHCWQ4,50,8,8,1.0,41,7,49,8,8,1.0,asocial
01JVR94A9PYR966XMPFQCHCWQ4,50,9,8,1.0,0,0,10,1,8,1.0,asocial
01JVR94A9PYR966XMPFQCHCWQ4,51,0,8,1.0,0,0,53,7,8,1.0,asocial
01JVR94A9PYR966XMPFQCHCWQ4,51,1,8,1.0,0,0,125,10,8,1.0,asocial
01JVR94A9PYR966XMPFQCHCWQ4,51,2,8,1.0,0,0,57,7,8,1.0,asocial
01JVR94A9PYR966XMPFQCHCWQ4,51,3,8,1.0,0,0,17,2,8,1.0,asocial
01JVR94A9PYR966XMPFQCHCWQ4,51,4,8,1.0,0,0,13,4,8,1.0,asocial
01JVR94A9PYR966XMPFQCHCWQ4,51,5,8,1.0,0,0,15,2,8,1.0,asocial
01JVR94A9PYR966XMPFQCHCWQ4,51,6,8,1.0,0,0,58,6,8,1.0,asocial
01JVR94A9PYR966XMPFQCHCWQ4,51,7,8,1.0,0,0,50,2,8,1.0,asocial
01JVR94A9PYR966XMPFQCHCWQ4,51,8,8,1.0,42,7,51,8,8,1.0,asocial
01JVR94A9PYR966XMPFQCHCWQ4,51,9,8,1.0,0,0,10,1,8,1.0,asocial
01JVR94DXY79MX003W3AW46BCP,1,0,3,1.0,0,0,0,0,-1,,asocial
01JVR94DXY79MX003W3AW46BCP,1,1,3,1.0,0,0,0,0,-1,,asocial
01JVR94DXY79MX003W3AW46BCP,1,2,3,1.0,0,0,0,0,-1,,asocial
01JVR94DXY79MX003W3AW46BCP,1,3,3,1.0,0,0,0,0,-1,,asocial
01JVR94DXY79MX003W3AW46BCP,1,4,3,1.0,0,0,0,0,-1,,asocial
01JVR94DXY79MX003W3AW46BCP,1,5,3,1.0,0,0,0,0,-1,,asocial
01JVR94DXY79MX003W3AW46BCP,1,6,3,1.0,0,0,0,0,-1,,asocial
01JVR94DXY79MX003W3AW46BCP,1,7,3,1.0,0,0,0,0,-1,,asocial
01JVR94DXY79MX003W3AW46BCP,1,8,3,1.0,0,0,0,0,-1,,asocial
01JVR94DXY79MX003W3AW46BCP,1,9,3,1.0,0,0,0,0,-1,,asocial
01JVR94DXY79MX003W3AW46BCP,2,0,3,1.0,0,0,1,0,3,1.0,asocial
01JVR94DXY79MX003W3AW46BCP,2,1,3,1.0,0,0,1,0,3,1.0,asocial
01JVR94DXY79MX003W3AW46BCP,2,2,3,1.0,0,0,1,0,3,1.0,asocial
01JVR94DXY79MX003W3AW46BCP,2,3,3,1.0,1,0,1,0,3,1.0,asocial
01JVR94DXY79MX003W3AW46BCP,2,4,3,1.0,0,0,1,0,3,1.0,asocial
01JVR94DXY79MX003W3AW46BCP,2,5,3,1.0,0,0,0,1,3,1.0,asocial
01JVR94DXY79MX003W3AW46BCP,2,6,3,1.0,0,0,1,0,3,1.0,asocial
01JVR94DXY79MX003W3AW46BCP,2,7,3,1.0,0,0,1,0,3,1.0,asocial
01JVR94DXY79MX003W3AW46BCP,2,8,3,1.0,0,0,1,0,3,1.0,asocial
01JVR94DXY79MX003W3AW46BCP,2,9,3,1.0,0,0,1,0,3,1.0,asocial
01JVR94DXY79MX003W3AW46BCP,3,0,3,1.0,0,0,2,0,3,1.0,asocial
01JVR94DXY79MX003W3AW46BCP,3,1,3,1.0,0,0,3,0,3,1.0,asocial
01JVR94DXY79MX003W3AW46BCP,3,2,3,1.0,0,0,2,0,3,1.0,asocial
01JVR94DXY79MX003W3AW46BCP,3,3,3,1.0,2,0,2,0,3,1.0,asocial
01JVR94DXY79MX003W3AW46BCP,3,4,3,1.0,0,0,1,1,3,1.0,asocial
01JVR94DXY79MX003W3AW46BCP,3,5,3,1.0,0,0,0,1,3,1.0,asocial
01JVR94DXY79MX003W3AW46BCP,3,6,3,1.0,0,0,2,0,3,1.0,asocial
01JVR94DXY79MX003W3AW46BCP,3,7,3,1.0,0,0,2,0,3,1.0,asocial
01JVR94DXY79MX003W3AW46BCP,3,8,3,1.0,0,0,2,0,3,1.0,asocial
01JVR94DXY79MX003W3AW46BCP,3,9,3,1.0,0,0,2,0,3,1.0,asocial
01JVR94DXY79MX003W3AW46BCP,4,0,3,1.0,0,0,2,2,3,1.0,asocial
01JVR94DXY79MX003W3AW46BCP,4,1,3,1.0,0,0,3,0,3,1.0,asocial
01JVR94DXY79MX003W3AW46BCP,4,2,3,1.0,0,0,3,0,3,1.0,asocial
01JVR94DXY79MX003W3AW46BCP,4,3,3,1.0,3,0,3,0,3,1.0,asocial
01JVR94DXY79MX003W3AW46BCP,4,4,3,1.0,0,0,2,1,3,1.0,asocial
01JVR94DXY79MX003W3AW46BCP,4,5,3,1.0,0,0,0,1,3,1.0,asocial
01JVR94DXY79MX003W3AW46BCP,4,6,3,1.0,0,0,3,0,3,1.0,asocial
01JVR94DXY79MX003W3AW46BCP,4,7,3,1.0,0,0,3,0,3,1.0,asocial
01JVR94DXY79MX003W3AW46BCP,4,8,3,1.0,0,0,2,1,3,1.0,asocial
01JVR94DXY79MX003W3AW46BCP,4,9,3,1.0,0,0,3,0,3,1.0,asocial
01JVR94DXY79MX003W3AW46BCP,5,0,3,1.0,0,0,3,2,3,1.0,asocial
01JVR94DXY79MX003W3AW46BCP,5,1,3,1.0,0,0,6,0,3,1.0,asocial
01JVR94DXY79MX003W3AW46BCP,5,2,3,1.0,0,0,4,0,3,1.0,asocial
01JVR94DXY79MX003W3AW46BCP,5,3,3,1.0,4,0,5,0,3,1.0,asocial
01JVR94DXY79MX003W3AW46BCP,5,4,3,1.0,0,0,2,1,3,1.0,asocial
01JVR94DXY79MX003W3AW46BCP,5,5,3,1.0,0,0,0,1,3,1.0,asocial
01JVR94DXY79MX003W3AW46BCP,5,6,3,1.0,0,0,4,0,3,1.0,asocial
01JVR94DXY79MX003W3AW46BCP,5,7,3,1.0,0,0,4,0,3,1.0,asocial
01JVR94DXY79MX003W3AW46BCP,5,8,3,1.0,0,0,3,1,3,1.0,asocial
01JVR94DXY79MX003W3AW46BCP,5,9,3,1.0,0,0,3,0,3,1.0,asocial
01JVR94DXY79MX003W3AW46BCP,6,0,3,1.0,0,0,4,2,3,1.0,asocial
01JVR94DXY79MX003W3AW46BCP,6,1,3,1.0,0,0,9,0,3,1.0,asocial
01JVR94DXY79MX003W3AW46BCP,6,2,3,1.0,0,0,5,0,3,1.0,asocial
01JVR94DXY79MX003W3AW46BCP,6,3,3,1.0,5,0,6,0,3,1.0,asocial
01JVR94DXY79MX003W3AW46BCP,6,4,3,1.0,0,0,2,1,3,1.0,asocial
01JVR94DXY79MX003W3AW46BCP,6,5,3,1.0,0,0,0,1,3,1.0,asocial
01JVR94DXY79MX003W3AW46BCP,6,6,3,1.0,0,0,6,0,3,1.0,asocial
01JVR94DXY79MX003W3AW46BCP,6,7,3,1.0,0,0,5,0,3,1.0,asocial
01JVR94DXY79MX003W3AW46BCP,6,8,3,1.0,0,0,4,1,3,1.0,asocial
01JVR94DXY79MX003W3AW46BCP,6,9,3,1.0,0,0,3,0,3,1.0,asocial
01JVR94DXY79MX003W3AW46BCP,7,0,4,1.0,0,0,5,2,3,1.0,asocial
01JVR94DXY79MX003W3AW46BCP,7,1,4,1.0,0,0,11,1,3,1.0,asocial
01JVR94DXY79MX003W3AW46BCP,7,2,4,1.0,0,0,6,0,3,1.0,asocial
01JVR94DXY79MX003W3AW46BCP,7,3,4,1.0,6,0,7,0,3,1.0,asocial
01JVR94DXY79MX003W3AW46BCP,7,4,4,1.0,0,0,2,1,3,1.0,asocial
01JVR94DXY79MX003W3AW46BCP,7,5,4,1.0,0,0,0,1,3,1.0,asocial
01JVR94DXY79MX003W3AW46BCP,7,6,4,1.0,0,0,7,0,3,1.0,asocial
01JVR94DXY79MX003W3AW46BCP,7,7,4,1.0,0,0,6,0,3,1.0,asocial
01JVR94DXY79MX003W3AW46BCP,7,8,4,1.0,0,0,5,2,3,1.0,asocial
01JVR94DXY79MX003W3AW46BCP,7,9,4,1.0,0,0,3,0,3,1.0,asocial
01JVR94DXY79MX003W3AW46BCP,8,0,0,1.0,0,0,6,2,4,1.0,asocial
01JVR94DXY79MX003W3AW46BCP,8,1,0,1.0,0,0,14,1,4,1.0,asocial
01JVR94DXY79MX003W3AW46BCP,8,2,0,1.0,0,0,7,0,4,1.0,asocial
01JVR94DXY79MX003W3AW46BCP,8,3,0,1.0,6,0,7,0,4,1.0,asocial
01JVR94DXY79MX003W3AW46BCP,8,4,0,1.0,1,0,3,1,4,1.0,asocial
01JVR94DXY79MX003W3AW46BCP,8,5,0,1.0,0,0,0,1,4,1.0,asocial
01JVR94DXY79MX003W3AW46BCP,8,6,0,1.0,0,0,7,1,4,1.0,asocial
01JVR94DXY79MX003W3AW46BCP,8,7,0,1.0,0,0,7,0,4,1.0,asocial
01JVR94DXY79MX003W3AW46BCP,8,8,0,1.0,0,0,6,2,4,1.0,asocial
01JVR94DXY79MX003W3AW46BCP,8,9,0,1.0,0,0,4,0,4,1.0,asocial
01JVR94DXY79MX003W3AW46BCP,9,0,1,1.0,1,0,9,2,0,1.0,asocial
01JVR94DXY79MX003W3AW46BCP,9,1,1,1.0,0,0,17,1,0,1.0,asocial
01JVR94DXY79MX003W3AW46BCP,9,2,1,1.0,0,0,8,0,0,1.0,asocial
01JVR94DXY79MX003W3AW46BCP,9,3,1,1.0,6,0,7,0,0,1.0,asocial
01JVR94DXY79MX003W3AW46BCP,9,4,1,1.0,1,0,3,1,0,1.0,asocial
01JVR94DXY79MX003W3AW46BCP,9,5,1,1.0,0,0,0,1,0,1.0,asocial
01JVR94DXY79MX003W3AW46BCP,9,6,1,1.0,0,0,8,1,0,1.0,asocial
01JVR94DXY79MX003W3AW46BCP,9,7,1,1.0,0,0,8,0,0,1.0,asocial
01JVR94DXY79MX003W3AW46BCP,9,8,1,1.0,0,0,7,2,0,1.0,asocial
01JVR94DXY79MX003W3AW46BCP,9,9,1,1.0,0,0,4,0,0,1.0,asocial
01JVR94DXY79MX003W3AW46BCP,10,0,1,1.0,1,0,10,2,1,1.0,asocial
01JVR94DXY79MX003W3AW46BCP,10,1,1,1.0,1,0,19,2,1,1.0,asocial
01JVR94DXY79MX003W3AW46BCP,10,2,1,1.0,0,0,9,0,1,1.0,asocial
01JVR94DXY79MX003W3AW46BCP,10,3,1,1.0,6,0,8,0,1,1.0,asocial
01JVR94DXY79MX003W3AW46BCP,10,4,1,1.0,1,0,3,2,1,1.0,asocial
01JVR94DXY79MX003W3AW46BCP,10,5,1,1.0,0,0,0,1,1,1.0,asocial
01JVR94DXY79MX003W3AW46BCP,10,6,1,1.0,0,0,9,1,1,1.0,asocial
01JVR94DXY79MX003W3AW46BCP,10,7,1,1.0,0,0,9,0,1,1.0,asocial
01JVR94DXY79MX003W3AW46BCP,10,8,1,1.0,0,0,8,2,1,1.0,asocial
01JVR94DXY79MX003W3AW46BCP,10,9,1,1.0,0,0,4,0,1,1.0,asocial
01JVR94DXY79MX003W3AW46BCP,11,0,5,1.0,1,0,11,2,1,1.0,asocial
01JVR94DXY79MX003W3AW46BCP,11,1,5,1.0,2,0,22,2,1,1.0,asocial
01JVR94DXY79MX003W3AW46BCP,11,2,5,1.0,0,0,10,0,1,1.0,asocial
01JVR94DXY79MX003W3AW46BCP,11,3,5,1.0,6,0,8,1,1,1.0,asocial
01JVR94DXY79MX003W3AW46BCP,11,4,5,1.0,1,0,3,2,1,1.0,asocial
01JVR94DXY79MX003W3AW46BCP,11,5,5,1.0,0,0,0,1,1,1.0,asocial
01JVR94DXY79MX003W3AW46BCP,11,6,5,1.0,0,0,10,1,1,1.0,asocial
01JVR94DXY79MX003W3AW46BCP,11,7,5,1.0,0,0,10,0,1,1.0,asocial
01JVR94DXY79MX003W3AW46BCP,11,8,5,1.0,0,0,10,2,1,1.0,asocial
01JVR94DXY79MX003W3AW46BCP,11,9,5,1.0,0,0,4,0,1,1.0,asocial
01JVR94DXY79MX003W3AW46BCP,12,0,6,1.0,1,0,12,2,5,1.0,asocial
01JVR94DXY79MX003W3AW46BCP,12,1,6,1.0,2,0,25,2,5,1.0,asocial
01JVR94DXY79MX003W3AW46BCP,12,2,6,1.0,0,0,11,0,5,1.0,asocial
01JVR94DXY79MX003W3AW46BCP,12,3,6,1.0,6,0,9,1,5,1.0,asocial
01JVR94DXY79MX003W3AW46BCP,12,4,6,1.0,1,0,3,2,5,1.0,asocial
01JVR94DXY79MX003W3AW46BCP,12,5,6,1.0,1,0,1,1,5,1.0,asocial
01JVR94DXY79MX003W3AW46BCP,12,6,6,1.0,0,0,11,1,5,1.0,asocial
01JVR94DXY79MX003W3AW46BCP,12,7,6,1.0,0,0,11,0,5,1.0,asocial
01JVR94DXY79MX003W3AW46BCP,12,8,6,1.0,0,0,10,3,5,1.0,asocial
01JVR94DXY79MX003W3AW46BCP,12,9,6,1.0,0,0,4,0,5,1.0,asocial
01JVR94DXY79MX003W3AW46BCP,13,0,2,0.0,1,0,13,2,6,1.0,asocial
01JVR94DXY79MX003W3AW46BCP,13,1,2,0.0,2,0,28,2,6,1.0,asocial
01JVR94DXY79MX003W3AW46BCP,13,2,2,0.0,0,0,12,0,6,1.0,asocial
01JVR94DXY79MX003W3AW46BCP,13,3,2,0.0,6,0,9,1,6,1.0,asocial
01JVR94DXY79MX003W3AW46BCP,13,4,2,0.0,1,0,3,2,6,1.0,asocial
01JVR94DXY79MX003W3AW46BCP,13,5,2,0.0,1,0,2,1,6,1.0,asocial
01JVR94DXY79MX003W3AW46BCP,13,6,2,0.0,1,0,13,1,6,1.0,asocial
01JVR94DXY79MX003W3AW46BCP,13,7,2,0.0,0,0,12,0,6,1.0,asocial
01JVR94DXY79MX003W3AW46BCP,13,8,2,0.0,0,0,10,4,6,1.0,asocial
01JVR94DXY79MX003W3AW46BCP,13,9,2,0.0,0,0,4,0,6,1.0,asocial
01JVR94DXY79MX003W3AW46BCP,14,0,7,1.0,1,0,14,2,2,0.0,asocial
01JVR94DXY79MX003W3AW46BCP,14,1,7,1.0,2,0,32,2,2,0.0,asocial
01JVR94DXY79MX003W3AW46BCP,14,2,7,1.0,0,1,13,1,2,0.0,asocial
01JVR94DXY79MX003W3AW46BCP,14,3,7,1.0,6,0,9,1,2,0.0,asocial
