participant_id,round,arm,choice,reward,own_success,own_failure,group_success,group_failure,prev_choice,prev_reward,condition
01JTNS7NPXBWAM6WBJVKS07CGG,1,0,7,1.0,0,0,0,0,-1,,asocial
01JTNS7NPXBWAM6WBJVKS07CGG,1,1,7,1.0,0,0,0,0,-1,,asocial
01JTNS7NPXBWAM6WBJVKS07CGG,1,2,7,1.0,0,0,0,0,-1,,asocial
01JTNS7NPXBWAM6WBJVKS07CGG,1,3,7,1.0,0,0,0,0,-1,,asocial
01JTNS7NPXBWAM6WBJVKS07CGG,1,4,7,1.0,0,0,0,0,-1,,asocial
01JTNS7NPXBWAM6WBJVKS07CGG,1,5,7,1.0,0,0,0,0,-1,,asocial
01JTNS7NPXBWAM6WBJVKS07CGG,1,6,7,1.0,0,0,0,0,-1,,asocial
01JTNS7NPXBWAM6WBJVKS07CGG,1,7,7,1.0,0,0,0,0,-1,,asocial
01JTNS7NPXBWAM6WBJVKS07CGG,1,8,7,1.0,0,0,0,0,-1,,asocial
01JTNS7NPXBWAM6WBJVKS07CGG,1,9,7,1.0,0,0,0,0,-1,,asocial
01JTNS7NPXBWAM6WBJVKS07CGG,7,0,5,1.0,0,0,2,1,-1,,asocial
01JTNS7NPXBWAM6WBJVKS07CGG,7,1,5,1.0,0,0,3,1,-1,,asocial
01JTNS7NPXBWAM6WBJVKS07CGG,7,2,5,1.0,0,0,1,0,-1,,asocial
01JTNS7NPXBWAM6WBJVKS07CGG,7,3,5,1.0,0,0,0,0,-1,,asocial
01JTNS7NPXBWAM6WBJVKS07CGG,7,4,5,1.0,0,0,3,0,-1,,asocial
01JTNS7NPXBWAM6WBJVKS07CGG,7,5,5,1.0,0,0,33,2,-1,,asocial
01JTNS7NPXBWAM6WBJVKS07CGG,7,6,5,1.0,0,0,1,0,-1,,asocial
01JTNS7NPXBWAM6WBJVKS07CGG,7,7,5,1.0,1,0,1,0,-1,,asocial
01JTNS7NPXBWAM6WBJVKS07CGG,7,8,5,1.0,0,0,0,0,-1,,asocial
01JTNS7NPXBWAM6WBJVKS07CGG,7,9,5,1.0,0,0,0,1,-1,,asocial
01JTNS7NPXBWAM6WBJVKS07CGG,8,0,7,1.0,0,0,2,1,5,1.0,asocial
01JTNS7NPXBWAM6WBJVKS07CGG,8,1,7,1.0,0,0,3,1,5,1.0,asocial
01JTNS7NPXBWAM6WBJVKS07CGG,8,2,7,1.0,0,0,1,0,5,1.0,asocial
01JTNS7NPXBWAM6WBJVKS07CGG,8,3,7,1.0,0,0,0,0,5,1.0,asocial
01JTNS7NPXBWAM6WBJVKS07CGG,8,4,7,1.0,0,0,4,0,5,1.0,asocial
01JTNS7NPXBWAM6WBJVKS07CGG,8,5,7,1.0,1,0,36,8,5,1.0,asocial
01JTNS7NPXBWAM6WBJVKS07CGG,8,6,7,1.0,0,0,1,0,5,1.0,asocial
01JTNS7NPXBWAM6WBJVKS07CGG,8,7,7,1.0,1,0,1,0,5,1.0,asocial
01JTNS7NPXBWAM6WBJVKS07CGG,8,8,7,1.0,0,0,0,0,5,1.0,asocial
01JTNS7NPXBWAM6WBJVKS07CGG,8,9,7,1.0,0,0,0,1,5,1.0,asocial
01JTNS7NPXBWAM6WBJVKS07CGG,9,0,4,1.0,0,0,3,1,7,1.0,asocial
01JTNS7NPXBWAM6WBJVKS07CGG,9,1,4,1.0,0,0,3,1,7,1.0,asocial
01JTNS7NPXBWAM6WBJVKS07CGG,9,2,4,1.0,0,0,1,0,7,1.0,asocial
01JTNS7NPXBWAM6WBJVKS07CGG,9,3,4,1.0,0,0,0,0,7,1.0,asocial
01JTNS7NPXBWAM6WBJVKS07CGG,9,4,4,1.0,0,0,7,0,7,1.0,asocial
01JTNS7NPXBWAM6WBJVKS07CGG,9,5,4,1.0,1,0,41,8,7,1.0,asocial
01JTNS7NPXBWAM6WBJVKS07CGG,9,6,4,1.0,0,0,1,0,7,1.0,asocial
01JTNS7NPXBWAM6WBJVKS07CGG,9,7,4,1.0,2,0,2,0,7,1.0,asocial
01JTNS7NPXBWAM6WBJVKS07CGG,9,8,4,1.0,0,0,0,0,7,1.0,asocial
01JTNS7NPXBWAM6WBJVKS07CGG,9,9,4,1.0,0,0,0,1,7,1.0,asocial
01JTNS7NPXBWAM6WBJVKS07CGG,10,0,7,1.0,0,0,3,1,4,1.0,asocial
01JTNS7NPXBWAM6WBJVKS07CGG,10,1,7,1.0,0,0,3,1,4,1.0,asocial
01JTNS7NPXBWAM6WBJVKS07CGG,10,2,7,1.0,0,0,1,0,4,1.0,asocial
01JTNS7NPXBWAM6WBJVKS07CGG,10,3,7,1.0,0,0,0,0,4,1.0,asocial
01JTNS7NPXBWAM6WBJVKS07CGG,10,4,7,1.0,1,0,12,0,4,1.0,asocial
01JTNS7NPXBWAM6WBJVKS07CGG,10,5,7,1.0,1,0,46,8,4,1.0,asocial
01JTNS7NPXBWAM6WBJVKS07CGG,10,6,7,1.0,0,0,1,0,4,1.0,asocial
01JTNS7NPXBWAM6WBJVKS07CGG,10,7,7,1.0,2,0,2,0,4,1.0,asocial
01JTNS7NPXBWAM6WBJVKS07CGG,10,8,7,1.0,0,0,0,0,4,1.0,asocial
01JTNS7NPXBWAM6WBJVKS07CGG,10,9,7,1.0,0,0,0,1,4,1.0,asocial
01JTNS7NPXBWAM6WBJVKS07CGG,11,0,7,1.0,0,0,3,1,7,1.0,asocial
01JTNS7NPXBWAM6WBJVKS07CGG,11,1,7,1.0,0,0,4,1,7,1.0,asocial
01JTNS7NPXBWAM6WBJVKS07CGG,11,2,7,1.0,0,0,1,0,7,1.0,asocial
01JTNS7NPXBWAM6WBJVKS07CGG,11,3,7,1.0,0,0,0,0,7,1.0,asocial
01JTNS7NPXBWAM6WBJVKS07CGG,11,4,7,1.0,1,0,17,1,7,1.0,asocial
01JTNS7NPXBWAM6WBJVKS07CGG,11,5,7,1.0,1,0,48,8,7,1.0,asocial
01JTNS7NPXBWAM6WBJVKS07CGG,11,6,7,1.0,0,0,1,0,7,1.0,asocial
01JTNS7NPXBWAM6WBJVKS07CGG,11,7,7,1.0,3,0,3,0,7,1.0,asocial
01JTNS7NPXBWAM6WBJVKS07CGG,11,8,7,1.0,0,0,0,0,7,1.0,asocial
01JTNS7NPXBWAM6WBJVKS07CGG,11,9,7,1.0,0,0,0,1,7,1.0,asocial
01JTNS7NPXBWAM6WBJVKS07CGG,12,0,7,1.0,0,0,3,1,7,1.0,asocial
01JTNS7NPXBWAM6WBJVKS07CGG,12,1,7,1.0,0,0,5,1,7,1.0,asocial
01JTNS7NPXBWAM6WBJVKS07CGG,12,2,7,1.0,0,0,1,0,7,1.0,asocial
01JTNS7NPXBWAM6WBJVKS07CGG,12,3,7,1.0,0,0,0,0,7,1.0,asocial
01JTNS7NPXBWAM6WBJVKS07CGG,12,4,7,1.0,1,0,22,2,7,1.0,asocial
01JTNS7NPXBWAM6WBJVKS07CGG,12,5,7,1.0,1,0,49,9,7,1.0,asocial
01JTNS7NPXBWAM6WBJVKS07CGG,12,6,7,1.0,0,0,1,0,7,1.0,asocial
01JTNS7NPXBWAM6WBJVKS07CGG,12,7,7,1.0,4,0,4,0,7,1.0,asocial
01JTNS7NPXBWAM6WBJVKS07CGG,12,8,7,1.0,0,0,0,0,7,1.0,asocial
01JTNS7NPXBWAM6WBJVKS07CGG,12,9,7,1.0,0,0,0,1,7,1.0,asocial
01JTNS7NPXBWAM6WBJVKS07CGG,13,0,7,1.0,0,0,3,1,7,1.0,asocial
01JTNS7NPXBWAM6WBJVKS07CGG,13,1,7,1.0,0,0,5,1,7,1.0,asocial
01JTNS7NPXBWAM6WBJVKS07CGG,13,2,7,1.0,0,0,1,0,7,1.0,asocial
01JTNS7NPXBWAM6WBJVKS07CGG,13,3,7,1.0,0,0,0,0,7,1.0,asocial
01JTNS7NPXBWAM6WBJVKS07CGG,13,4,7,1.0,1,0,26,2,7,1.0,asocial
01JTNS7NPXBWAM6WBJVKS07CGG,13,5,7,1.0,1,0,52,10,7,1.0,asocial
01JTNS7NPXBWAM6WBJVKS07CGG,13,6,7,1.0,0,0,1,0,7,1.0,asocial
01JTNS7NPXBWAM6WBJVKS07CGG,13,7,7,1.0,5,0,5,1,7,1.0,asocial
01JTNS7NPXBWAM6WBJVKS07CGG,13,8,7,1.0,0,0,0,0,7,1.0,asocial
01JTNS7NPXBWAM6WBJVKS07CGG,13,9,7,1.0,0,0,0,1,7,1.0,asocial
01JTNS7NPXBWAM6WBJVKS07CGG,14,0,7,1.0,0,0,3,1,7,1.0,asocial
01JTNS7NPXBWAM6WBJVKS07CGG,14,1,7,1.0,0,0,5,1,7,1.0,asocial
01JTNS7NPXBWAM6WBJVKS07CGG,14,2,7,1.0,0,0,1,0,7,1.0,asocial
01JTNS7NPXBWAM6WBJVKS07CGG,14,3,7,1.0,0,0,0,0,7,1.0,asocial
01JTNS7NPXBWAM6WBJVKS07CGG,14,4,7,1.0,1,0,31,3,7,1.0,asocial
01JTNS7NPXBWAM6WBJVKS07CGG,14,5,7,1.0,1,0,55,10,7,1.0,asocial
01JTNS7NPXBWAM6WBJVKS07CGG,14,6,7,1.0,0,0,1,0,7,1.0,asocial
01JTNS7NPXBWAM6WBJVKS07CGG,14,7,7,1.0,6,0,6,1,7,1.0,asocial
01JTNS7NPXBWAM6WBJVKS07CGG,14,8,7,1.0,0,0,0,0,7,1.0,asocial
01JTNS7NPXBWAM6WBJVKS07CGG,14,9,7,1.0,0,0,0,1,7,1.0,asocial
01JTNS7NPXBWAM6WBJVKS07CGG,15,0,7,1.0,0,0,3,1,7,1.0,asocial
01JTNS7NPXBWAM6WBJVKS07CGG,15,1,7,1.0,0,0,5,1,7,1.0,asocial
01JTNS7NPXBWAM6WBJVKS07CGG,15,2,7,1.0,0,0,1,0,7,1.0,asocial
01JTNS7NPXBWAM6WBJVKS07CGG,15,3,7,1.0,0,0,0,0,7,1.0,asocial
01JTNS7NPXBWAM6WBJVKS07CGG,15,4,7,1.0,1,0,35,4,7,1.0,asocial
01JTNS7NPXBWAM6WBJVKS07CGG,15,5,7,1.0,1,0,58,10,7,1.0,asocial
01JTNS7NPXBWAM6WBJVKS07CGG,15,6,7,1.0,0,0,1,0,7,1.0,asocial
01JTNS7NPXBWAM6WBJVKS07CGG,15,7,7,1.0,7,0,8,1,7,1.0,asocial
01JTNS7NPXBWAM6WBJVKS07CGG,15,8,7,1.0,0,0,0,0,7,1.0,asocial
01JTNS7NPXBWAM6WBJVKS07CGG,15,9,7,1.0,0,0,0,1,7,1.0,asocial
01JTNS7NPXBWAM6WBJVKS07CGG,16,0,7,1.0,0,0,3,1,7,1.0,asocial
01JTNS7NPXBWAM6WBJVKS07CGG,16,1,7,1.0,0,0,5,1,7,1.0,asocial
01JTNS7NPXBWAM6WBJVKS07CGG,16,2,7,1.0,0,0,1,0,7,1.0,asocial
01JTNS7NPXBWAM6WBJVKS07CGG,16,3,7,1.0,0,0,0,0,7,1.0,asocial
01JTNS7NPXBWAM6WBJVKS07CGG,16,4,7,1.0,1,0,39,4,7,1.0,asocial
01JTNS7NPXBWAM6WBJVKS07CGG,16,5,7,1.0,1,0,61,10,7,1.0,asocial
01JTNS7NPXBWAM6WBJVKS07CGG,16,6,7,1.0,0,0,1,0,7,1.0,asocial
01JTNS7NPXBWAM6WBJVKS07CGG,16,7,7,1.0,8,0,10,2,7,1.0,asocial
01JTNS7NPXBWAM6WBJVKS07CGG,16,8,7,1.0,0,0,0,0,7,1.0,asocial
01JTNS7NPXBWAM6WBJVKS07CGG,16,9,7,1.0,0,0,0,1,7,1.0,asocial
01JTNS7NPXBWAM6WBJVKS07CGG,17,0,7,1.0,0,0,3,1,7,1.0,asocial
01JTNS7NPXBWAM6WBJVKS07CGG,17,1,7,1.0,0,0,6,1,7,1.0,asocial
01JTNS7NPXBWAM6WBJVKS07CGG,17,2,7,1.0,0,0,1,0,7,1.0,asocial
01JTNS7NPXBWAM6WBJVKS07CGG,17,3,7,1.0,0,0,0,0,7,1.0,asocial
01JTNS7NPXBWAM6WBJVKS07CGG,17,4,7,1.0,1,0,42,5,7,1.0,asocial
01JTNS7NPXBWAM6WBJVKS07CGG,17,5,7,1.0,1,0,64,10,7,1.0,asocial
01JTNS7NPXBWAM6WBJVKS07CGG,17,6,7,1.0,0,0,1,0,7,1.0,asocial
01JTNS7NPXBWAM6WBJVKS07CGG,17,7,7,1.0,9,0,12,2,7,1.0,asocial
01JTNS7NPXBWAM6WBJVKS07CGG,17,8,7,1.0,0,0,0,0,7,1.0,asocial
01JTNS7NPXBWAM6WBJVKS07CGG,17,9,7,1.0,0,0,0,1,7,1.0,asocial
01JTNS7NPXBWAM6WBJVKS07CGG,18,0,7,1.0,0,0,3,1,7,1.0,asocial
01JTNS7NPXBWAM6WBJVKS07CGG,18,1,7,1.0,0,0,6,1,7,1.0,asocial
01JTNS7NPXBWAM6WBJVKS07CGG,18,2,7,1.0,0,0,1,0,7,1.0,asocial
01JTNS7NPXBWAM6WBJVKS07CGG,18,3,7,1.0,0,0,0,0,7,1.0,asocial
01JTNS7NPXBWAM6WBJVKS07CGG,18,4,7,1.0,1,0,46,5,7,1.0,asocial
01JTNS7NPXBWAM6WBJVKS07CGG,18,5,7,1.0,1,0,67,10,7,1.0,asocial
01JTNS7NPXBWAM6WBJVKS07CGG,18,6,7,1.0,0,0,1,0,7,1.0,asocial
01JTNS7NPXBWAM6WBJVKS07CGG,18,7,7,1.0,10,0,15,2,7,1.0,asocial
01JTNS7NPXBWAM6WBJVKS07CGG,18,8,7,1.0,0,0,0,0,7,1.0,asocial
01JTNS7NPXBWAM6WBJVKS07CGG,18,9,7,1.0,0,0,0,1,7,1.0,asocial
01JTNS7NPXBWAM6WBJVKS07CGG,19,0,7,1.0,0,0,3,1,7,1.0,asocial
01JTNS7NPXBWAM6WBJVKS07CGG,19,1,7,1.0,0,0,6,2,7,1.0,asocial
01JTNS7NPXBWAM6WBJVKS07CGG,19,2,7,1.0,0,0,1,0,7,1.0,asocial
01JTNS7NPXBWAM6WBJVKS07CGG,19,3,7,1.0,0,0,0,0,7,1.0,asocial
01JTNS7NPXBWAM6WBJVKS07CGG,19,4,7,1.0,1,0,47,6,7,1.0,asocial
01JTNS7NPXBWAM6WBJVKS07CGG,19,5,7,1.0,1,0,71,10,7,1.0,asocial
01JTNS7NPXBWAM6WBJVKS07CGG,19,6,7,1.0,0,0,1,0,7,1.0,asocial
01JTNS7NPXBWAM6WBJVKS07CGG,19,7,7,1.0,11,0,18,2,7,1.0,asocial
01JTNS7NPXBWAM6WBJVKS07CGG,19,8,7,1.0,0,0,0,0,7,1.0,asocial
01JTNS7NPXBWAM6WBJVKS07CGG,19,9,7,1.0,0,0,0,1,7,1.0,asocial
01JTNS7NPXBWAM6WBJVKS07CGG,20,0,7,0.0,0,0,3,1,7,1.0,asocial
01JTNS7NPXBWAM6WBJVKS07CGG,20,1,7,0.0,0,0,7,2,7,1.0,asocial
01JTNS7NPXBWAM6WBJVKS07CGG,20,2,7,0.0,0,0,1,0,7,1.0,asocial
01JTNS7NPXBWAM6WBJVKS07CGG,20,3,7,0.0,0,0,0,0,7,1.0,asocial
01JTNS7NPXBWAM6WBJVKS07CGG,20,4,7,0.0,1,0,48,7,7,1.0,asocial
01JTNS7NPXBWAM6WBJVKS07CGG,20,5,7,0.0,1,0,76,10,7,1.0,asocial
01JTNS7NPXBWAM6WBJVKS07CGG,20,6,7,0.0,0,0,1,0,7,1.0,asocial
01JTNS7NPXBWAM6WBJVKS07CGG,20,7,7,0.0,12,0,20,2,7,1.0,asocial
01JTNS7NPXBWAM6WBJVKS07CGG,20,8,7,0.0,0,0,0,0,7,1.0,asocial
01JTNS7NPXBWAM6WBJVKS07CGG,20,9,7,0.0,0,0,0,1,7,1.0,asocial
01JTNS7NPXBWAM6WBJVKS07CGG,21,0,7,1.0,0,0,3,1,7,0.0,asocial
01JTNS7NPXBWAM6WBJVKS07CGG,21,1,7,1.0,0,0,8,2,7,0.0,asocial
01JTNS7NPXBWAM6WBJVKS07CGG,21,2,7,1.0,0,0,1,0,7,0.0,asocial
01JTNS7NPXBWAM6WBJVKS07CGG,21,3,7,1.0,0,0,0,0,7,0.0,asocial
01JTNS7NPXBWAM6WBJVKS07CGG,21,4,7,1.0,1,0,48,7,7,0.0,asocial
01JTNS7NPXBWAM6WBJVKS07CGG,21,5,7,1.0,1,0,82,10,7,0.0,asocial
01JTNS7NPXBWAM6WBJVKS07CGG,21,6,7,1.0,0,0,1,0,7,0.0,asocial
01JTNS7NPXBWAM6WBJVKS07CGG,21,7,7,1.0,12,1,22,3,7,0.0,asocial
01JTNS7NPXBWAM6WBJVKS07CGG,21,8,7,1.0,0,0,0,0,7,0.0,asocial
01JTNS7NPXBWAM6WBJVKS07CGG,21,9,7,1.0,0,0,0,1,7,0.0,asocial
01JTNS7NPXBWAM6WBJVKS07CGG,22,0,7,1.0,0,0,3,1,7,1.0,asocial
01JTNS7NPXBWAM6WBJVKS07CGG,22,1,7,1.0,0,0,8,2,7,1.0,asocial
01JTNS7NPXBWAM6WBJVKS07CGG,22,2,7,1.0,0,0,1,0,7,1.0,asocial
01JTNS7NPXBWAM6WBJVKS07CGG,22,3,7,1.0,0,0,0,0,7,1.0,asocial
01JTNS7NPXBWAM6WBJVKS07CGG,22,4,7,1.0,1,0,48,7,7,1.0,asocial
01JTNS7NPXBWAM6WBJVKS07CGG,22,5,7,1.0,1,0,89,10,7,1.0,asocial
01JTNS7NPXBWAM6WBJVKS07CGG,22,6,7,1.0,0,0,1,0,7,1.0,asocial
01JTNS7NPXBWAM6WBJVKS07CGG,22,7,7,1.0,13,1,25,3,7,1.0,asocial
01JTNS7NPXBWAM6WBJVKS07CGG,22,8,7,1.0,0,0,0,0,7,1.0,asocial
01JTNS7NPXBWAM6WBJVKS07CGG,22,9,7,1.0,0,0,0,1,7,1.0,asocial
01JTNS7NPXBWAM6WBJVKS07CGG,23,0,7,1.0,0,0,4,1,7,1.0,asocial
01JTNS7NPXBWAM6WBJVKS07CGG,23,1,7,1.0,0,0,8,2,7,1.0,asocial
01JTNS7NPXBWAM6WBJVKS07CGG,23,2,7,1.0,0,0,1,0,7,1.0,asocial
01JTNS7NPXBWAM6WBJVKS07CGG,23,3,7,1.0,0,0,0,0,7,1.0,asocial
01JTNS7NPXBWAM6WBJVKS07CGG,23,4,7,1.0,1,0,48,7,7,1.0,asocial
01JTNS7NPXBWAM6WBJVKS07CGG,23,5,7,1.0,1,0,96,10,7,1.0,asocial
01JTNS7NPXBWAM6WBJVKS07CGG,23,6,7,1.0,0,0,1,0,7,1.0,asocial
01JTNS7NPXBWAM6WBJVKS07CGG,23,7,7,1.0,14,1,27,3,7,1.0,asocial
01JTNS7NPXBWAM6WBJVKS07CGG,23,8,7,1.0,0,0,0,0,7,1.0,asocial
01JTNS7NPXBWAM6WBJVKS07CGG,23,9,7,1.0,0,0,0,1,7,1.0,asocial
01JTNS7NPXBWAM6WBJVKS07CGG,24,0,7,0.0,0,0,5,1,7,1.0,asocial
01JTNS7NPXBWAM6WBJVKS07CGG,24,1,7,0.0,0,0,8,2,7,1.0,asocial
01JTNS7NPXBWAM6WBJVKS07CGG,24,2,7,0.0,0,0,1,0,7,1.0,asocial
01JTNS7NPXBWAM6WBJVKS07CGG,24,3,7,0.0,0,0,0,0,7,1.0,asocial
01JTNS7NPXBWAM6WBJVKS07CGG,24,4,7,0.0,1,0,48,7,7,1.0,asocial
01JTNS7NPXBWAM6WBJVKS07CGG,24,5,7,0.0,1,0,100,12,7,1.0,asocial
01JTNS7NPXBWAM6WBJVKS07CGG,24,6,7,0.0,0,0,1,0,7,1.0,asocial
01JTNS7NPXBWAM6WBJVKS07CGG,24,7,7,0.0,15,1,30,3,7,1.0,asocial
01JTNS7NPXBWAM6WBJVKS07CGG,24,8,7,0.0,0,0,0,0,7,1.0,asocial
01JTNS7NPXBWAM6WBJVKS07CGG,24,9,7,0.0,0,0,0,1,7,1.0,asocial
01JTNS7NPXBWAM6WBJVKS07CGG,25,0,7,1.0,0,0,6,1,7,0.0,asocial
01JTNS7NPXBWAM6WBJVKS07CGG,25,1,7,1.0,0,0,9,2,7,0.0,asocial
01JTNS7NPXBWAM6WBJVKS07CGG,25,2,7,1.0,0,0,1,0,7,0.0,asocial
01JTNS7NPXBWAM6WBJVKS07CGG,25,3,7,1.0,0,0,0,0,7,0.0,asocial
01JTNS7NPXBWAM6WBJVKS07CGG,25,4,7,1.0,1,0,48,7,7,0.0,asocial
01JTNS7NPXBWAM6WBJVKS07CGG,25,5,7,1.0,1,0,104,13,7,0.0,asocial
01JTNS7NPXBWAM6WBJVKS07CGG,25,6,7,1.0,0,0,1,0,7,0.0,asocial
01JTNS7NPXBWAM6WBJVKS07CGG,25,7,7,1.0,15,2,32,4,7,0.0,asocial
01JTNS7NPXBWAM6WBJVKS07CGG,25,8,7,1.0,0,0,0,0,7,0.0,asocial
01JTNS7NPXBWAM6WBJVKS07CGG,25,9,7,1.0,0,0,0,1,7,0.0,asocial
01JTNS7NPXBWAM6WBJVKS07CGG,26,0,7,1.0,0,0,7,1,7,1.0,asocial
01JTNS7NPXBWAM6WBJVKS07CGG,26,1,7,1.0,0,0,9,2,7,1.0,asocial
01JTNS7NPXBWAM6WBJVKS07CGG,26,2,7,1.0,0,0,1,0,7,1.0,asocial
01JTNS7NPXBWAM6WBJVKS07CGG,26,3,7,1.0,0,0,0,0,7,1.0,asocial
01JTNS7NPXBWAM6WBJVKS07CGG,26,4,7,1.0,1,0,48,7,7,1.0,asocial
01JTNS7NPXBWAM6WBJVKS07CGG,26,5,7,1.0,1,0,110,13,7,1.0,asocial
01JTNS7NPXBWAM6WBJVKS07CGG,26,6,7,1.0,0,0,1,0,7,1.0,asocial
01JTNS7NPXBWAM6WBJVKS07CGG,26,7,7,1.0,16,2,35,4,7,1.0,asocial
01JTNS7NPXBWAM6WBJVKS07CGG,26,8,7,1.0,0,0,0,0,7,1.0,asocial
01JTNS7NPXBWAM6WBJVKS07CGG,26,9,7,1.0,0,0,0,1,7,1.0,asocial
01JTNS7NPXBWAM6WBJVKS07CGG,27,0,7,1.0,0,0,8,1,7,1.0,asocial
01JTNS7NPXBWAM6WBJVKS07CGG,27,1,7,1.0,0,0,10,2,7,1.0,asocial
01JTNS7NPXBWAM6WBJVKS07CGG,27,2,7,1.0,0,0,1,0,7,1.0,asocial
01JTNS7NPXBWAM6WBJVKS07CGG,27,3,7,1.0,0,0,0,0,7,1.0,asocial
01JTNS7NPXBWAM6WBJVKS07CGG,27,4,7,1.0,1,0,49,7,7,1.0,asocial
01JTNS7NPXBWAM6WBJVKS07CGG,27,5,7,1.0,1,0,114,13,7,1.0,asocial
01JTNS7NPXBWAM6WBJVKS07CGG,27,6,7,1.0,0,0,1,0,7,1.0,asocial
01JTNS7NPXBWAM6WBJVKS07CGG,27,7,7,1.0,17,2,38,4,7,1.0,asocial
01JTNS7NPXBWAM6WBJVKS07CGG,27,8,7,1.0,0,0,0,0,7,1.0,asocial
01JTNS7NPXBWAM6WBJVKS07CGG,27,9,7,1.0,0,0,0,1,7,1.0,asocial
01JTNS7NPXBWAM6WBJVKS07CGG,28,0,7,1.0,0,0,10,1,7,1.0,asocial
01JTNS7NPXBWAM6WBJVKS07CGG,28,1,7,1.0,0,0,10,2,7,1.0,asocial
01JTNS7NPXBWAM6WBJVKS07CGG,28,2,7,1.0,0,0,1,0,7,1.0,asocial
01JTNS7NPXBWAM6WBJVKS07CGG,28,3,7,1.0,0,0,0,0,7,1.0,asocial
01JTNS7NPXBWAM6WBJVKS07CGG,28,4,7,1.0,1,0,50,7,7,1.0,asocial
01JTNS7NPXBWAM6WBJVKS07CGG,28,5,7,1.0,1,0,118,13,7,1.0,asocial
01JTNS7NPXBWAM6WBJVKS07CGG,28,6,7,1.0,0,0,1,0,7,1.0,asocial
01JTNS7NPXBWAM6WBJVKS07CGG,28,7,7,1.0,18,2,41,4,7,1.0,asocial
01JTNS7NPXBWAM6WBJVKS07CGG,28,8,7,1.0,0,0,0,0,7,1.0,asocial
01JTNS7NPXBWAM6WBJVKS07CGG,28,9,7,1.0,0,0,0,1,7,1.0,asocial
01JTNS7NPXBWAM6WBJVKS07CGG,29,0,7,1.0,0,0,10,1,7,1.0,asocial
01JTNS7NPXBWAM6WBJVKS07CGG,29,1,7,1.0,0,0,11,2,7,1.0,asocial
01JTNS7NPXBWAM6WBJVKS07CGG,29,2,7,1.0,0,0,1,0,7,1.0,asocial
01JTNS7NPXBWAM6WBJVKS07CGG,29,3,7,1.0,0,0,0,0,7,1.0,asocial
01JTNS7NPXBWAM6WBJVKS07CGG,29,4,7,1.0,1,0,50,7,7,1.0,asocial
01JTNS7NPXBWAM6WBJVKS07CGG,29,5,7,1.0,1,0,121,13,7,1.0,asocial
01JTNS7NPXBWAM6WBJVKS07CGG,29,6,7,1.0,0,0,2,0,7,1.0,asocial
01JTNS7NPXBWAM6WBJVKS07CGG,29,7,7,1.0,19,2,46,4,7,1.0,asocial
01JTNS7NPXBWAM6WBJVKS07CGG,29,8,7,1.0,0,0,0,0,7,1.0,asocial
01JTNS7NPXBWAM6WBJVKS07CGG,29,9,7,1.0,0,0,0,1,7,1.0,asocial
01JTNS7NPXBWAM6WBJVKS07CGG,30,0,7,1.0,0,0,10,1,7,1.0,asocial
01JTNS7NPXBWAM6WBJVKS07CGG,30,1,7,1.0,0,0,11,2,7,1.0,asocial
01JTNS7NPXBWAM6WBJVKS07CGG,30,2,7,1.0,0,0,1,0,7,1.0,asocial
01JTNS7NPXBWAM6WBJVKS07CGG,30,3,7,1.0,0,0,0,0,7,1.0,asocial
01JTNS7NPXBWAM6WBJVKS07CGG,30,4,7,1.0,1,0,51,7,7,1.0,asocial
01JTNS7NPXBWAM6WBJVKS07CGG,30,5,7,1.0,1,0,127,13,7,1.0,asocial
01JTNS7NPXBWAM6WBJVKS07CGG,30,6,7,1.0,0,0,2,0,7,1.0,asocial
01JTNS7NPXBWAM6WBJVKS07CGG,30,7,7,1.0,20,2,49,4,7,1.0,asocial
01JTNS7NPXBWAM6WBJVKS07CGG,30,8,7,1.0,0,0,0,0,7,1.0,asocial
01JTNS7NPXBWAM6WBJVKS07CGG,30,9,7,1.0,0,0,0,1,7,1.0,asocial
01JTNS7NPXBWAM6WBJVKS07CGG,31,0,7,0.0,0,0,11,1,7,1.0,asocial
01JTNS7NPXBWAM6WBJVKS07CGG,31,1,7,0.0,0,0,12,2,7,1.0,asocial
01JTNS7NPXBWAM6WBJVKS07CGG,31,2,7,0.0,0,0,1,0,7,1.0,asocial
01JTNS7NPXBWAM6WBJVKS07CGG,31,3,7,0.0,0,0,0,0,7,1.0,asocial
01JTNS7NPXBWAM6WBJVKS07CGG,31,4,7,0.0,1,0,51,7,7,1.0,asocial
01JTNS7NPXBWAM6WBJVKS07CGG,31,5,7,0.0,1,0,130,14,7,1.0,asocial
01JTNS7NPXBWAM6WBJVKS07CGG,31,6,7,0.0,0,0,2,0,7,1.0,asocial
01JTNS7NPXBWAM6WBJVKS07CGG,31,7,7,0.0,21,2,53,4,7,1.0,asocial
01JTNS7NPXBWAM6WBJVKS07CGG,31,8,7,0.0,0,0,0,0,7,1.0,asocial
01JTNS7NPXBWAM6WBJVKS07CGG,31,9,7,0.0,0,0,0,1,7,1.0,asocial
01JTNS7NPXBWAM6WBJVKS07CGG,32,0,7,1.0,0,0,11,1,7,0.0,asocial
01JTNS7NPXBWAM6WBJVKS07CGG,32,1,7,1.0,0,0,13,2,7,0.0,asocial
01JTNS7NPXBWAM6WBJVKS07CGG,32,2,7,1.0,0,0,1,0,7,0.0,asocial
01JTNS7NPXBWAM6WBJVKS07CGG,32,3,7,1.0,0,0,0,0,7,0.0,asocial
01JTNS7NPXBWAM6WBJVKS07CGG,32,4,7,1.0,1,0,52,7,7,0.0,asocial
01JTNS7NPXBWAM6WBJVKS07CGG,32,5,7,1.0,1,0,135,14,7,0.0,asocial
01JTNS7NPXBWAM6WBJVKS07CGG,32,6,7,1.0,0,0,2,0,7,0.0,asocial
01JTNS7NPXBWAM6WBJVKS07CGG,32,7,7,1.0,21,3,55,5,7,0.0,asocial
01JTNS7NPXBWAM6WBJVKS07CGG,32,8,7,1.0,0,0,0,0,7,0.0,asocial
01JTNS7NPXBWAM6WBJVKS07CGG,32,9,7,1.0,0,0,0,1,7,0.0,asocial
01JTNS7NPXBWAM6WBJVKS07CGG,33,0,7,1.0,0,0,11,1,7,1.0,asocial
01JTNS7NPXBWAM6WBJVKS07CGG,33,1,7,1.0,0,0,14,2,7,1.0,asocial
01JTNS7NPXBWAM6WBJVKS07CGG,33,2,7,1.0,0,0,1,0,7,1.0,asocial
01JTNS7NPXBWAM6WBJVKS07CGG,33,3,7,1.0,0,0,0,0,7,1.0,asocial
01JTNS7NPXBWAM6WBJVKS07CGG,33,4,7,1.0,1,0,52,7,7,1.0,asocial
01JTNS7NPXBWAM6WBJVKS07CGG,33,5,7,1.0,1,0,140,14,7,1.0,asocial
01JTNS7NPXBWAM6WBJVKS07CGG,33,6,7,1.0,0,0,3,0,7,1.0,asocial
01JTNS7NPXBWAM6WBJVKS07CGG,33,7,7,1.0,22,3,58,5,7,1.0,asocial
01JTNS7NPXBWAM6WBJVKS07CGG,33,8,7,1.0,0,0,0,0,7,1.0,asocial
01JTNS7NPXBWAM6WBJVKS07CGG,33,9,7,1.0,0,0,0,1,7,1.0,asocial
01JTNS7NPXBWAM6WBJVKS07CGG,34,0,7,1.0,0,0,12,1,7,1.0,asocial
01JTNS7NPXBWAM6WBJVKS07CGG,34,1,7,1.0,0,0,14,2,7,1.0,asocial
01JTNS7NPXBWAM6WBJVKS07CGG,34,2,7,1.0,0,0,1,0,7,1.0,asocial
01JTNS7NPXBWAM6WBJVKS07CGG,34,3,7,1.0,0,0,0,0,7,1.0,asocial
01JTNS7NPXBWAM6WBJVKS07CGG,34,4,7,1.0,1,0,52,7,7,1.0,asocial
01JTNS7NPXBWAM6WBJVKS07CGG,34,5,7,1.0,1,0,145,14,7,1.0,asocial
01JTNS7NPXBWAM6WBJVKS07CGG,34,6,7,1.0,0,0,4,0,7,1.0,asocial
01JTNS7NPXBWAM6WBJVKS07CGG,34,7,7,1.0,23,3,60,6,7,1.0,asocial
01JTNS7NPXBWAM6WBJVKS07CGG,34,8,7,1.0,0,0,0,0,7,1.0,asocial
01JTNS7NPXBWAM6WBJVKS07CGG,34,9,7,1.0,0,0,0,1,7,1.0,asocial
01JTNS7NPXBWAM6WBJVKS07CGG,35,0,7,1.0,0,0,12,1,7,1.0,asocial
01JTNS7NPXBWAM6WBJVKS07CGG,35,1,7,1.0,0,0,14,2,7,1.0,asocial
01JTNS7NPXBWAM6WBJVKS07CGG,35,2,7,1.0,0,0,1,0,7,1.0,asocial
01JTNS7NPXBWAM6WBJVKS07CGG,35,3,7,1.0,0,0,0,0,7,1.0,asocial
01JTNS7NPXBWAM6WBJVKS07CGG,35,4,7,1.0,1,0,53,7,7,1.0,asocial
01JTNS7NPXBWAM6WBJVKS07CGG,35,5,7,1.0,1,0,149,14,7,1.0,asocial
01JTNS7NPXBWAM6WBJVKS07CGG,35,6,7,1.0,0,0,6,0,7,1.0,asocial
01JTNS7NPXBWAM6WBJVKS07CGG,35,7,7,1.0,24,3,63,6,7,1.0,asocial
01JTNS7NPXBWAM6WBJVKS07CGG,35,8,7,1.0,0,0,0,0,7,1.0,asocial
01JTNS7NPXBWAM6WBJVKS07CGG,35,9,7,1.0,0,0,0,1,7,1.0,asocial
01JTNS7NPXBWAM6WBJVKS07CGG,36,0,7,1.0,0,0,12,1,7,1.0,asocial
01JTNS7NPXBWAM6WBJVKS07CGG,36,1,7,1.0,0,0,14,2,7,1.0,asocial
01JTNS7NPXBWAM6WBJVKS07CGG,36,2,7,1.0,0,0,1,0,7,1.0,asocial
01JTNS7NPXBWAM6WBJVKS07CGG,36,3,7,1.0,0,0,0,0,7,1.0,asocial
01JTNS7NPXBWAM6WBJVKS07CGG,36,4,7,1.0,1,0,53,7,7,1.0,asocial
01JTNS7NPXBWAM6WBJVKS07CGG,36,5,7,1.0,1,0,155,15,7,1.0,asocial
01JTNS7NPXBWAM6WBJVKS07CGG,36,6,7,1.0,0,0,8,0,7,1.0,asocial
01JTNS7NPXBWAM6WBJVKS07CGG,36,7,7,1.0,25,3,64,6,7,1.0,asocial
01JTNS7NPXBWAM6WBJVKS07CGG,36,8,7,1.0,0,0,0,0,7,1.0,asocial
01JTNS7NPXBWAM6WBJVKS07CGG,36,9,7,1.0,0,0,0,1,7,1.0,asocial
01JTNS7NPXBWAM6WBJVKS07CGG,37,0,7,1.0,0,0,12,1,7,1.0,asocial
01JTNS7NPXBWAM6WBJVKS07CGG,37,1,7,1.0,0,0,14,2,7,1.0,asocial
01JTNS7NPXBWAM6WBJVKS07CGG,37,2,7,1.0,0,0,1,0,7,1.0,asocial
01JTNS7NPXBWAM6WBJVKS07CGG,37,3,7,1.0,0,0,0,0,7,1.0,asocial
01JTNS7NPXBWAM6WBJVKS07CGG,37,4,7,1.0,1,0,53,7,7,1.0,asocial
01JTNS7NPXBWAM6WBJVKS07CGG,37,5,7,1.0,1,0,159,15,7,1.0,asocial
01JTNS7NPXBWAM6WBJVKS07CGG,37,6,7,1.0,0,0,11,1,7,1.0,asocial
01JTNS7NPXBWAM6WBJVKS07CGG,37,7,7,1.0,26,3,66,6,7,1.0,asocial
01JTNS7NPXBWAM6WBJVKS07CGG,37,8,7,1.0,0,0,0,0,7,1.0,asocial
01JTNS7NPXBWAM6WBJVKS07CGG,37,9,7,1.0,0,0,0,1,7,1.0,asocial
01JTNS7NPXBWAM6WBJVKS07CGG,38,0,7,1.0,0,0,12,1,7,1.0,asocial
01JTNS7NPXBWAM6WBJVKS07CGG,38,1,7,1.0,0,0,14,2,7,1.0,asocial
01JTNS7NPXBWAM6WBJVKS07CGG,38,2,7,1.0,0,0,2,0,7,1.0,asocial
01JTNS7NPXBWAM6WBJVKS07CGG,38,3,7,1.0,0,0,0,0,7,1.0,asocial
01JTNS7NPXBWAM6WBJVKS07CGG,38,4,7,1.0,1,0,53,7,7,1.0,asocial
01JTNS7NPXBWAM6WBJVKS07CGG,38,5,7,1.0,1,0,165,15,7,1.0,asocial
01JTNS7NPXBWAM6WBJVKS07CGG,38,6,7,1.0,0,0,13,1,7,1.0,asocial
01JTNS7NPXBWAM6WBJVKS07CGG,38,7,7,1.0,27,3,67,6,7,1.0,asocial
01JTNS7NPXBWAM6WBJVKS07CGG,38,8,7,1.0,0,0,0,0,7,1.0,asocial
01JTNS7NPXBWAM6WBJVKS07CGG,38,9,7,1.0,0,0,0,1,7,1.0,asocial
01JTNS7NPXBWAM6WBJVKS07CGG,39,0,7,1.0,0,0,12,1,7,1.0,asocial
01JTNS7NPXBWAM6WBJVKS07CGG,39,1,7,1.0,0,0,14,2,7,1.0,asocial
01JTNS7NPXBWAM6WBJVKS07CGG,39,2,7,1.0,0,0,2,0,7,1.0,asocial
01JTNS7NPXBWAM6WBJVKS07CGG,39,3,7,1.0,0,0,0,0,7,1.0,asocial
01JTNS7NPXBWAM6WBJVKS07CGG,39,4,7,1.0,1,0,53,7,7,1.0,asocial
01JTNS7NPXBWAM6WBJVKS07CGG,39,5,7,1.0,1,0,172,15,7,1.0,asocial
01JTNS7NPXBWAM6WBJVKS07CGG,39,6,7,1.0,0,0,15,1,7,1.0,asocial
01JTNS7NPXBWAM6WBJVKS07CGG,39,7,7,1.0,28,3,68,6,7,1.0,asocial
01JTNS7NPXBWAM6WBJVKS07CGG,39,8,7,1.0,0,0,0,0,7,1.0,asocial
01JTNS7NPXBWAM6WBJVKS07CGG,39,9,7,1.0,0,0,0,1,7,1.0,asocial
01JTNS7NPXBWAM6WBJVKS07CGG,40,0,7,1.0,0,0,12,1,7,1.0,asocial
01JTNS7NPXBWAM6WBJVKS07CGG,40,1,7,1.0,0,0,14,2,7,1.0,asocial
01JTNS7NPXBWAM6WBJVKS07CGG,40,2,7,1.0,0,0,2,0,7,1.0,asocial
01JTNS7NPXBWAM6WBJVKS07CGG,40,3,7,1.0,0,0,0,0,7,1.0,asocial
01JTNS7NPXBWAM6WBJVKS07CGG,40,4,7,1.0,1,0,53,7,7,1.0,asocial
01JTNS7NPXBWAM6WBJVKS07CGG,40,5,7,1.0,1,0,177,16,7,1.0,asocial
01JTNS7NPXBWAM6WBJVKS07CGG,40,6,7,1.0,0,0,18,1,7,1.0,asocial
01JTNS7NPXBWAM6WBJVKS07CGG,40,7,7,1.0,29,3,69,6,7,1.0,asocial
01JTNS7NPXBWAM6WBJVKS07CGG,40,8,7,1.0,0,0,0,0,7,1.0,asocial
01JTNS7NPXBWAM6WBJVKS07CGG,40,9,7,1.0,0,0,0,1,7,1.0,asocial
01JTNS7NPXBWAM6WBJVKS07CGG,41,0,7,1.0,0,0,12,1,7,1.0,asocial
01JTNS7NPXBWAM6WBJVKS07CGG,41,1,7,1.0,0,0,14,2,7,1.0,asocial
01JTNS7NPXBWAM6WBJVKS07CGG,41,2,7,1.0,0,0,3,0,7,1.0,asocial
01JTNS7NPXBWAM6WBJVKS07CGG,41,3,7,1.0,0,0,0,0,7,1.0,asocial
01JTNS7NPXBWAM6WBJVKS07CGG,41,4,7,1.0,1,0,53,7,7,1.0,asocial
01JTNS7NPXBWAM6WBJVKS07CGG,41,5,7,1.0,1,0,184,16,7,1.0,asocial
01JTNS7NPXBWAM6WBJVKS07CGG,41,6,7,1.0,0,0,19,1,7,1.0,asocial
01JTNS7NPXBWAM6WBJVKS07CGG,41,7,7,1.0,30,3,70,6,7,1.0,asocial
01JTNS7NPXBWAM6WBJVKS07CGG,41,8,7,1.0,0,0,0,0,7,1.0,asocial
01JTNS7NPXBWAM6WBJVKS07CGG,41,9,7,1.0,0,0,0,1,7,1.0,asocial
01JTNS7NPXBWAM6WBJVKS07CGG,42,0,7,1.0,0,0,12,1,7,1.0,asocial
01JTNS7NPXBWAM6WBJVKS07CGG,42,1,7,1.0,0,0,14,2,7,1.0,asocial
01JTNS7NPXBWAM6WBJVKS07CGG,42,2,7,1.0,0,0,3,0,7,1.0,asocial
01JTNS7NPXBWAM6WBJVKS07CGG,42,3,7,1.0,0,0,0,0,7,1.0,asocial
01JTNS7NPXBWAM6WBJVKS07CGG,42,4,7,1.0,1,0,53,7,7,1.0,asocial
01JTNS7NPXBWAM6WBJVKS07CGG,42,5,7,1.0,1,0,192,16,7,1.0,asocial
01JTNS7NPXBWAM6WBJVKS07CGG,42,6,7,1.0,0,0,19,1,7,1.0,asocial
01JTNS7NPXBWAM6WBJVKS07CGG,42,7,7,1.0,31,3,72,6,7,1.0,asocial
01JTNS7NPXBWAM6WBJVKS07CGG,42,8,7,1.0,0,0,0,0,7,1.0,asocial
01JTNS7NPXBWAM6WBJVKS07CGG,42,9,7,1.0,0,0,0,1,7,1.0,asocial
01JTNS7NPXBWAM6WBJVKS07CGG,43,0,7,1.0,0,0,12,1,7,1.0,asocial
01JTNS7NPXBWAM6WBJVKS07CGG,43,1,7,1.0,0,0,14,2,7,1.0,asocial
01JTNS7NPXBWAM6WBJVKS07CGG,43,2,7,1.0,0,0,3,0,7,1.0,asocial
01JTNS7NPXBWAM6WBJVKS07CGG,43,3,7,1.0,0,0,0,0,7,1.0,asocial
01JTNS7NPXBWAM6WBJVKS07CGG,43,4,7,1.0,1,0,53,7,7,1.0,asocial
01JTNS7NPXBWAM6WBJVKS07CGG,43,5,7,1.0,1,0,197,18,7,1.0,asocial
01JTNS7NPXBWAM6WBJVKS07CGG,43,6,7,1.0,0,0,20,1,7,1.0,asocial
01JTNS7NPXBWAM6WBJVKS07CGG,43,7,7,1.0,32,3,73,6,7,1.0,asocial
01JTNS7NPXBWAM6WBJVKS07CGG,43,8,7,1.0,0,0,1,0,7,1.0,asocial
01JTNS7NPXBWAM6WBJVKS07CGG,43,9,7,1.0,0,0,0,1,7,1.0,asocial
01JTNS7NPXBWAM6WBJVKS07CGG,44,0,7,1.0,0,0,13,1,7,1.0,asocial
01JTNS7NPXBWAM6WBJVKS07CGG,44,1,7,1.0,0,0,14,2,7,1.0,asocial
01JTNS7NPXBWAM6WBJVKS07CGG,44,2,7,1.0,0,0,3,0,7,1.0,asocial
01JTNS7NPXBWAM6WBJVKS07CGG,44,3,7,1.0,0,0,0,0,7,1.0,asocial
01JTNS7NPXBWAM6WBJVKS07CGG,44,4,7,1.0,1,0,53,7,7,1.0,asocial
01JTNS7NPXBWAM6WBJVKS07CGG,44,5,7,1.0,1,0,203,19,7,1.0,asocial
01JTNS7NPXBWAM6WBJVKS07CGG,44,6,7,1.0,0,0,20,1,7,1.0,asocial
01JTNS7NPXBWAM6WBJVKS07CGG,44,7,7,1.0,33,3,74,6,7,1.0,asocial
01JTNS7NPXBWAM6WBJVKS07CGG,44,8,7,1.0,0,0,2,0,7,1.0,asocial
01JTNS7NPXBWAM6WBJVKS07CGG,44,9,7,1.0,0,0,0,1,7,1.0,asocial
01JTNS7NPXBWAM6WBJVKS07CGG,45,0,7,1.0,0,0,13,1,7,1.0,asocial
01JTNS7NPXBWAM6WBJVKS07CGG,45,1,7,1.0,0,0,14,2,7,1.0,asocial
01JTNS7NPXBWAM6WBJVKS07CGG,45,2,7,1.0,0,0,3,0,7,1.0,asocial
01JTNS7NPXBWAM6WBJVKS07CGG,45,3,7,1.0,0,0,0,0,7,1.0,asocial
01JTNS7NPXBWAM6WBJVKS07CGG,45,4,7,1.0,1,0,53,7,7,1.0,asocial
01JTNS7NPXBWAM6WBJVKS07CGG,45,5,7,1.0,1,0,206,22,7,1.0,asocial
01JTNS7NPXBWAM6WBJVKS07CGG,45,6,7,1.0,0,0,21,1,7,1.0,asocial
01JTNS7NPXBWAM6WBJVKS07CGG,45,7,7,1.0,34,3,76,6,7,1.0,asocial
01JTNS7NPXBWAM6WBJVKS07CGG,45,8,7,1.0,0,0,3,0,7,1.0,asocial
01JTNS7NPXBWAM6WBJVKS07CGG,45,9,7,1.0,0,0,0,1,7,1.0,asocial
01JTNS7NPXBWAM6WBJVKS07CGG,46,0,7,1.0,0,0,13,1,7,1.0,asocial
01JTNS7NPXBWAM6WBJVKS07CGG,46,1,7,1.0,0,0,14,2,7,1.0,asocial
01JTNS7NPXBWAM6WBJVKS07CGG,46,2,7,1.0,0,0,3,0,7,1.0,asocial
01JTNS7NPXBWAM6WBJVKS07CGG,46,3,7,1.0,0,0,0,0,7,1.0,asocial
01JTNS7NPXBWAM6WBJVKS07CGG,46,4,7,1.0,1,0,54,7,7,1.0,asocial
01JTNS7NPXBWAM6WBJVKS07CGG,46,5,7,1.0,1,0,209,23,7,1.0,asocial
01JTNS7NPXBWAM6WBJVKS07CGG,46,6,7,1.0,0,0,21,1,7,1.0,asocial
01JTNS7NPXBWAM6WBJVKS07CGG,46,7,7,1.0,35,3,80,6,7,1.0,asocial
01JTNS7NPXBWAM6WBJVKS07CGG,46,8,7,1.0,0,0,4,0,7,1.0,asocial
01JTNS7NPXBWAM6WBJVKS07CGG,46,9,7,1.0,0,0,0,1,7,1.0,asocial
01JTNS7NPXBWAM6WBJVKS07CGG,47,0,7,0.0,0,0,13,1,7,1.0,asocial
01JTNS7NPXBWAM6WBJVKS07CGG,47,1,7,0.0,0,0,14,2,7,1.0,asocial
01JTNS7NPXBWAM6WBJVKS07CGG,47,2,7,0.0,0,0,3,0,7,1.0,asocial
01JTNS7NPXBWAM6WBJVKS07CGG,47,3,7,0.0,0,0,0,0,7,1.0,asocial
01JTNS7NPXBWAM6WBJVKS07CGG,47,4,7,0.0,1,0,54,7,7,1.0,asocial
01JTNS7NPXBWAM6WBJVKS07CGG,47,5,7,0.0,1,0,214,23,7,1.0,asocial
01JTNS7NPXBWAM6WBJVKS07CGG,47,6,7,0.0,0,0,22,1,7,1.0,asocial
01JTNS7NPXBWAM6WBJVKS07CGG,47,7,7,0.0,36,3,83,6,7,1.0,asocial
01JTNS7NPXBWAM6WBJVKS07CGG,47,8,7,0.0,0,0,5,0,7,1.0,asocial
01JTNS7NPXBWAM6WBJVKS07CGG,47,9,7,0.0,0,0,0,1,7,1.0,asocial
01JTNS7NPXBWAM6WBJVKS07CGG,48,0,7,1.0,0,0,13,1,7,0.0,asocial
01JTNS7NPXBWAM6WBJVKS07CGG,48,1,7,1.0,0,0,14,2,7,0.0,asocial
01JTNS7NPXBWAM6WBJVKS07CGG,48,2,7,1.0,0,0,4,0,7,0.0,asocial
01JTNS7NPXBWAM6WBJVKS07CGG,48,3,7,1.0,0,0,0,0,7,0.0,asocial
01JTNS7NPXBWAM6WBJVKS07CGG,48,4,7,1.0,1,0,54,7,7,0.0,asocial
01JTNS7NPXBWAM6WBJVKS07CGG,48,5,7,1.0,1,0,219,23,7,0.0,asocial
01JTNS7NPXBWAM6WBJVKS07CGG,48,6,7,1.0,0,0,22,1,7,0.0,asocial
01JTNS7NPXBWAM6WBJVKS07CGG,48,7,7,1.0,36,4,86,7,7,0.0,asocial
01JTNS7NPXBWAM6WBJVKS07CGG,48,8,7,1.0,0,0,5,0,7,0.0,asocial
01JTNS7NPXBWAM6WBJVKS07CGG,48,9,7,1.0,0,0,0,1,7,0.0,asocial
01JTNS7NPXBWAM6WBJVKS07CGG,49,0,7,1.0,0,0,13,1,7,1.0,asocial
01JTNS7NPXBWAM6WBJVKS07CGG,49,1,7,1.0,0,0,14,2,7,1.0,asocial
01JTNS7NPXBWAM6WBJVKS07CGG,49,2,7,1.0,0,0,4,0,7,1.0,asocial
01JTNS7NPXBWAM6WBJVKS07CGG,49,3,7,1.0,0,0,1,0,7,1.0,asocial
01JTNS7NPXBWAM6WBJVKS07CGG,49,4,7,1.0,1,0,54,7,7,1.0,asocial
01JTNS7NPXBWAM6WBJVKS07CGG,49,5,7,1.0,1,0,224,23,7,1.0,asocial
01JTNS7NPXBWAM6WBJVKS07CGG,49,6,7,1.0,0,0,23,2,7,1.0,asocial
01JTNS7NPXBWAM6WBJVKS07CGG,49,7,7,1.0,37,4,88,7,7,1.0,asocial
01JTNS7NPXBWAM6WBJVKS07CGG,49,8,7,1.0,0,0,5,0,7,1.0,asocial
01JTNS7NPXBWAM6WBJVKS07CGG,49,9,7,1.0,0,0,0,1,7,1.0,asocial
01JTNS7NPXBWAM6WBJVKS07CGG,50,0,7,1.0,0,0,13,1,7,1.0,asocial
01JTNS7NPXBWAM6WBJVKS07CGG,50,1,7,1.0,0,0,14,2,7,1.0,asocial
01JTNS7NPXBWAM6WBJVKS07CGG,50,2,7,1.0,0,0,4,0,7,1.0,asocial
01JTNS7NPXBWAM6WBJVKS07CGG,50,3,7,1.0,0,0,2,0,7,1.0,asocial
01JTNS7NPXBWAM6WBJVKS07CGG,50,4,7,1.0,1,0,54,7,7,1.0,asocial
01JTNS7NPXBWAM6WBJVKS07CGG,50,5,7,1.0,1,0,228,24,7,1.0,asocial
01JTNS7NPXBWAM6WBJVKS07CGG,50,6,7,1.0,0,0,24,2,7,1.0,asocial
01JTNS7NPXBWAM6WBJVKS07CGG,50,7,7,1.0,38,4,91,7,7,1.0,asocial
01JTNS7NPXBWAM6WBJVKS07CGG,50,8,7,1.0,0,0,5,0,7,1.0,asocial
01JTNS7NPXBWAM6WBJVKS07CGG,50,9,7,1.0,0,0,0,1,7,1.0,asocial
01JTNS7NPXBWAM6WBJVKS07CGG,51,0,7,0.0,0,0,13,1,7,1.0,asocial
01JTNS7NPXBWAM6WBJVKS07CGG,51,1,7,0.0,0,0,14,2,7,1.0,asocial
01JTNS7NPXBWAM6WBJVKS07CGG,51,2,7,0.0,0,0,4,0,7,1.0,asocial
01JTNS7NPXBWAM6WBJVKS07CGG,51,3,7,0.0,0,0,2,0,7,1.0,asocial
01JTNS7NPXBWAM6WBJVKS07CGG,51,4,7,0.0,1,0,54,7,7,1.0,asocial
01JTNS7NPXBWAM6WBJVKS07CGG,51,5,7,0.0,1,0,233,24,7,1.0,asocial
01JTNS7NPXBWAM6WBJVKS07CGG,51,6,7,0.0,0,0,24,2,7,1.0,asocial
01JTNS7NPXBWAM6WBJVKS07CGG,51,7,7,0.0,39,4,93,9,7,1.0,asocial
01JTNS7NPXBWAM6WBJVKS07CGG,51,8,7,0.0,0,0,5,0,7,1.0,asocial
01JTNS7NPXBWAM6WBJVKS07CGG,51,9,7,0.0,0,0,1,1,7,1.0,asocial
01JTNS7PQHWSEREKR6CK206ESW,1,0,9,0.0,0,0,0,0,-1,,asocial
01JTNS7PQHWSEREKR6CK206ESW,1,1,9,0.0,0,0,0,0,-1,,asocial
01JTNS7PQHWSEREKR6CK206ESW,1,2,9,0.0,0,0,0,0,-1,,asocial
01JTNS7PQHWSEREKR6CK206ESW,1,3,9,0.0,0,0,0,0,-1,,asocial
01JTNS7PQHWSEREKR6CK206ESW,1,4,9,0.0,0,0,0,0,-1,,asocial
01JTNS7PQHWSEREKR6CK206ESW,1,5,9,0.0,0,0,0,0,-1,,asocial
01JTNS7PQHWSEREKR6CK206ESW,1,6,9,0.0,0,0,0,0,-1,,asocial
01JTNS7PQHWSEREKR6CK206ESW,1,7,9,0.0,0,0,0,0,-1,,asocial
01JTNS7PQHWSEREKR6CK206ESW,1,8,9,0.0,0,0,0,0,-1,,asocial
01JTNS7PQHWSEREKR6CK206ESW,1,9,9,0.0,0,0,0,0,-1,,asocial
01JTNS7PQHWSEREKR6CK206ESW,2,0,5,1.0,0,0,1,0,9,0.0,asocial
01JTNS7PQHWSEREKR6CK206ESW,2,1,5,1.0,0,0,1,0,9,0.0,asocial
01JTNS7PQHWSEREKR6CK206ESW,2,2,5,1.0,0,0,1,0,9,0.0,asocial
01JTNS7PQHWSEREKR6CK206ESW,2,3,5,1.0,0,0,0,0,9,0.0,asocial
01JTNS7PQHWSEREKR6CK206ESW,2,4,5,1.0,0,0,1,0,9,0.0,asocial
01JTNS7PQHWSEREKR6CK206ESW,2,5,5,1.0,0,0,1,0,9,0.0,asocial
01JTNS7PQHWSEREKR6CK206ESW,2,6,5,1.0,0,0,1,0,9,0.0,asocial
01JTNS7PQHWSEREKR6CK206ESW,2,7,5,1.0,0,0,1,0,9,0.0,asocial
01JTNS7PQHWSEREKR6CK206ESW,2,8,5,1.0,0,0,0,0,9,0.0,asocial
01JTNS7PQHWSEREKR6CK206ESW,2,9,5,1.0,0,1,0,1,9,0.0,asocial
01JTNS7PQHWSEREKR6CK206ESW,3,0,5,1.0,0,0,2,0,5,1.0,asocial
01JTNS7PQHWSEREKR6CK206ESW,3,1,5,1.0,0,0,2,1,5,1.0,asocial
01JTNS7PQHWSEREKR6CK206ESW,3,2,5,1.0,0,0,1,0,5,1.0,asocial
01JTNS7PQHWSEREKR6CK206ESW,3,3,5,1.0,0,0,0,0,5,1.0,asocial
01JTNS7PQHWSEREKR6CK206ESW,3,4,5,1.0,0,0,2,0,5,1.0,asocial
01JTNS7PQHWSEREKR6CK206ESW,3,5,5,1.0,1,0,4,0,5,1.0,asocial
01JTNS7PQHWSEREKR6CK206ESW,3,6,5,1.0,0,0,1,0,5,1.0,asocial
01JTNS7PQHWSEREKR6CK206ESW,3,7,5,1.0,0,0,1,0,5,1.0,asocial
01JTNS7PQHWSEREKR6CK206ESW,3,8,5,1.0,0,0,0,0,5,1.0,asocial
01JTNS7PQHWSEREKR6CK206ESW,3,9,5,1.0,0,1,0,1,5,1.0,asocial
01JTNS7PQHWSEREKR6CK206ESW,4,0,5,1.0,0,0,2,0,5,1.0,asocial
01JTNS7PQHWSEREKR6CK206ESW,4,1,5,1.0,0,0,2,1,5,1.0,asocial
01JTNS7PQHWSEREKR6CK206ESW,4,2,5,1.0,0,0,1,0,5,1.0,asocial
01JTNS7PQHWSEREKR6CK206ESW,4,3,5,1.0,0,0,0,0,5,1.0,asocial
01JTNS7PQHWSEREKR6CK206ESW,4,4,5,1.0,0,0,2,0,5,1.0,asocial
01JTNS7PQHWSEREKR6CK206ESW,4,5,5,1.0,2,0,12,0,5,1.0,asocial
01JTNS7PQHWSEREKR6CK206ESW,4,6,5,1.0,0,0,1,0,5,1.0,asocial
01JTNS7PQHWSEREKR6CK206ESW,4,7,5,1.0,0,0,1,0,5,1.0,asocial
01JTNS7PQHWSEREKR6CK206ESW,4,8,5,1.0,0,0,0,0,5,1.0,asocial
01JTNS7PQHWSEREKR6CK206ESW,4,9,5,1.0,0,1,0,1,5,1.0,asocial
01JTNS7PQHWSEREKR6CK206ESW,5,0,5,1.0,0,0,2,1,5,1.0,asocial
01JTNS7PQHWSEREKR6CK206ESW,5,1,5,1.0,0,0,2,1,5,1.0,asocial
01JTNS7PQHWSEREKR6CK206ESW,5,2,5,1.0,0,0,1,0,5,1.0,asocial
01JTNS7PQHWSEREKR6CK206ESW,5,3,5,1.0,0,0,0,0,5,1.0,asocial
01JTNS7PQHWSEREKR6CK206ESW,5,4,5,1.0,0,0,2,0,5,1.0,asocial
01JTNS7PQHWSEREKR6CK206ESW,5,5,5,1.0,3,0,20,0,5,1.0,asocial
01JTNS7PQHWSEREKR6CK206ESW,5,6,5,1.0,0,0,1,0,5,1.0,asocial
01JTNS7PQHWSEREKR6CK206ESW,5,7,5,1.0,0,0,1,0,5,1.0,asocial
01JTNS7PQHWSEREKR6CK206ESW,5,8,5,1.0,0,0,0,0,5,1.0,asocial
01JTNS7PQHWSEREKR6CK206ESW,5,9,5,1.0,0,1,0,1,5,1.0,asocial
01JTNS7PQHWSEREKR6CK206ESW,6,0,5,0.0,0,0,2,1,5,1.0,asocial
01JTNS7PQHWSEREKR6CK206ESW,6,1,5,0.0,0,0,3,1,5,1.0,asocial
01JTNS7PQHWSEREKR6CK206ESW,6,2,5,0.0,0,0,1,0,5,1.0,asocial
01JTNS7PQHWSEREKR6CK206ESW,6,3,5,0.0,0,0,0,0,5,1.0,asocial
01JTNS7PQHWSEREKR6CK206ESW,6,4,5,0.0,0,0,3,0,5,1.0,asocial
01JTNS7PQHWSEREKR6CK206ESW,6,5,5,0.0,4,0,27,0,5,1.0,asocial
01JTNS7PQHWSEREKR6CK206ESW,6,6,5,0.0,0,0,1,0,5,1.0,asocial
01JTNS7PQHWSEREKR6CK206ESW,6,7,5,0.0,0,0,1,0,5,1.0,asocial
01JTNS7PQHWSEREKR6CK206ESW,6,8,5,0.0,0,0,0,0,5,1.0,asocial
01JTNS7PQHWSEREKR6CK206ESW,6,9,5,0.0,0,1,0,1,5,1.0,asocial
01JTNS7PQHWSEREKR6CK206ESW,7,0,5,0.0,0,0,2,1,5,0.0,asocial
01JTNS7PQHWSEREKR6CK206ESW,7,1,5,0.0,0,0,3,1,5,0.0,asocial
01JTNS7PQHWSEREKR6CK206ESW,7,2,5,0.0,0,0,1,0,5,0.0,asocial
01JTNS7PQHWSEREKR6CK206ESW,7,3,5,0.0,0,0,0,0,5,0.0,asocial
01JTNS7PQHWSEREKR6CK206ESW,7,4,5,0.0,0,0,3,0,5,0.0,asocial
01JTNS7PQHWSEREKR6CK206ESW,7,5,5,0.0,4,1,33,2,5,0.0,asocial
01JTNS7PQHWSEREKR6CK206ESW,7,6,5,0.0,0,0,1,0,5,0.0,asocial
01JTNS7PQHWSEREKR6CK206ESW,7,7,5,0.0,0,0,1,0,5,0.0,asocial
01JTNS7PQHWSEREKR6CK206ESW,7,8,5,0.0,0,0,0,0,5,0.0,asocial
01JTNS7PQHWSEREKR6CK206ESW,7,9,5,0.0,0,1,0,1,5,0.0,asocial
01JTNS7PQHWSEREKR6CK206ESW,8,0,5,1.0,0,0,2,1,5,0.0,asocial
01JTNS7PQHWSEREKR6CK206ESW,8,1,5,1.0,0,0,3,1,5,0.0,asocial
01JTNS7PQHWSEREKR6CK206ESW,8,2,5,1.0,0,0,1,0,5,0.0,asocial
01JTNS7PQHWSEREKR6CK206ESW,8,3,5,1.0,0,0,0,0,5,0.0,asocial
01JTNS7PQHWSEREKR6CK206ESW,8,4,5,1.0,0,0,4,0,5,0.0,asocial
01JTNS7PQHWSEREKR6CK206ESW,8,5,5,1.0,4,2,36,8,5,0.0,asocial
01JTNS7PQHWSEREKR6CK206ESW,8,6,5,1.0,0,0,1,0,5,0.0,asocial
01JTNS7PQHWSEREKR6CK206ESW,8,7,5,1.0,0,0,1,0,5,0.0,asocial
01JTNS7PQHWSEREKR6CK206ESW,8,8,5,1.0,0,0,0,0,5,0.0,asocial
01JTNS7PQHWSEREKR6CK206ESW,8,9,5,1.0,0,1,0,1,5,0.0,asocial
01JTNS7PQHWSEREKR6CK206ESW,9,0,5,1.0,0,0,3,1,5,1.0,asocial
01JTNS7PQHWSEREKR6CK206ESW,9,1,5,1.0,0,0,3,1,5,1.0,asocial
01JTNS7PQHWSEREKR6CK206ESW,9,2,5,1.0,0,0,1,0,5,1.0,asocial
01JTNS7PQHWSEREKR6CK206ESW,9,3,5,1.0,0,0,0,0,5,1.0,asocial
01JTNS7PQHWSEREKR6CK206ESW,9,4,5,1.0,0,0,7,0,5,1.0,asocial
01JTNS7PQHWSEREKR6CK206ESW,9,5,5,1.0,5,2,41,8,5,1.0,asocial
01JTNS7PQHWSEREKR6CK206ESW,9,6,5,1.0,0,0,1,0,5,1.0,asocial
01JTNS7PQHWSEREKR6CK206ESW,9,7,5,1.0,0,0,2,0,5,1.0,asocial
01JTNS7PQHWSEREKR6CK206ESW,9,8,5,1.0,0,0,0,0,5,1.0,asocial
01JTNS7PQHWSEREKR6CK206ESW,9,9,5,1.0,0,1,0,1,5,1.0,asocial
01JTNS7PQHWSEREKR6CK206ESW,10,0,5,1.0,0,0,3,1,5,1.0,asocial
01JTNS7PQHWSEREKR6CK206ESW,10,1,5,1.0,0,0,3,1,5,1.0,asocial
01JTNS7PQHWSEREKR6CK206ESW,10,2,5,1.0,0,0,1,0,5,1.0,asocial
01JTNS7PQHWSEREKR6CK206ESW,10,3,5,1.0,0,0,0,0,5,1.0,asocial
01JTNS7PQHWSEREKR6CK206ESW,10,4,5,1.0,0,0,12,0,5,1.0,asocial
01JTNS7PQHWSEREKR6CK206ESW,10,5,5,1.0,6,2,46,8,5,1.0,asocial
01JTNS7PQHWSEREKR6CK206ESW,10,6,5,1.0,0,0,1,0,5,1.0,asocial
01JTNS7PQHWSEREKR6CK206ESW,10,7,5,1.0,0,0,2,0,5,1.0,asocial
01JTNS7PQHWSEREKR6CK206ESW,10,8,5,1.0,0,0,0,0,5,1.0,asocial
01JTNS7PQHWSEREKR6CK206ESW,10,9,5,1.0,0,1,0,1,5,1.0,asocial
01JTNS7PQHWSEREKR6CK206ESW,11,0,5,1.0,0,0,3,1,5,1.0,asocial
01JTNS7PQHWSEREKR6CK206ESW,11,1,5,1.0,0,0,4,1,5,1.0,asocial
01JTNS7PQHWSEREKR6CK206ESW,11,2,5,1.0,0,0,1,0,5,1.0,asocial
01JTNS7PQHWSEREKR6CK206ESW,11,3,5,1.0,0,0,0,0,5,1.0,asocial
01JTNS7PQHWSEREKR6CK206ESW,11,4,5,1.0,0,0,17,1,5,1.0,asocial
01JTNS7PQHWSEREKR6CK206ESW,11,5,5,1.0,7,2,48,8,5,1.0,asocial
01JTNS7PQHWSEREKR6CK206ESW,11,6,5,1.0,0,0,1,0,5,1.0,asocial
01JTNS7PQHWSEREKR6CK206ESW,11,7,5,1.0,0,0,3,0,5,1.0,asocial
01JTNS7PQHWSEREKR6CK206ESW,11,8,5,1.0,0,0,0,0,5,1.0,asocial
01JTNS7PQHWSEREKR6CK206ESW,11,9,5,1.0,0,1,0,1,5,1.0,asocial
01JTNS7PQHWSEREKR6CK206ESW,12,0,5,1.0,0,0,3,1,5,1.0,asocial
01JTNS7PQHWSEREKR6CK206ESW,12,1,5,1.0,0,0,5,1,5,1.0,asocial
01JTNS7PQHWSEREKR6CK206ESW,12,2,5,1.0,0,0,1,0,5,1.0,asocial
01JTNS7PQHWSEREKR6CK206ESW,12,3,5,1.0,0,0,0,0,5,1.0,asocial
01JTNS7PQHWSEREKR6CK206ESW,12,4,5,1.0,0,0,22,2,5,1.0,asocial
01JTNS7PQHWSEREKR6CK206ESW,12,5,5,1.0,8,2,49,9,5,1.0,asocial
01JTNS7PQHWSEREKR6CK206ESW,12,6,5,1.0,0,0,1,0,5,1.0,asocial
01JTNS7PQHWSEREKR6CK206ESW,12,7,5,1.0,0,0,4,0,5,1.0,asocial
01JTNS7PQHWSEREKR6CK206ESW,12,8,5,1.0,0,0,0,0,5,1.0,asocial
01JTNS7PQHWSEREKR6CK206ESW,12,9,5,1.0,0,1,0,1,5,1.0,asocial
01JTNS7PQHWSEREKR6CK206ESW,13,0,4,1.0,0,0,3,1,5,1.0,asocial
01JTNS7PQHWSEREKR6CK206ESW,13,1,4,1.0,0,0,5,1,5,1.0,asocial
01JTNS7PQHWSEREKR6CK206ESW,13,2,4,1.0,0,0,1,0,5,1.0,asocial
01JTNS7PQHWSEREKR6CK206ESW,13,3,4,1.0,0,0,0,0,5,1.0,asocial
01JTNS7PQHWSEREKR6CK206ESW,13,4,4,1.0,0,0,26,2,5,1.0,asocial
01JTNS7PQHWSEREKR6CK206ESW,13,5,4,1.0,9,2,52,10,5,1.0,asocial
01JTNS7PQHWSEREKR6CK206ESW,13,6,4,1.0,0,0,1,0,5,1.0,asocial
01JTNS7PQHWSEREKR6CK206ESW,13,7,4,1.0,0,0,5,1,5,1.0,asocial
01JTNS7PQHWSEREKR6CK206ESW,13,8,4,1.0,0,0,0,0,5,1.0,asocial
01JTNS7PQHWSEREKR6CK206ESW,13,9,4,1.0,0,1,0,1,5,1.0,asocial
01JTNS7PQHWSEREKR6CK206ESW,14,0,4,1.0,0,0,3,1,4,1.0,asocial
01JTNS7PQHWSEREKR6CK206ESW,14,1,4,1.0,0,0,5,1,4,1.0,asocial
01JTNS7PQHWSEREKR6CK206ESW,14,2,4,1.0,0,0,1,0,4,1.0,asocial
01JTNS7PQHWSEREKR6CK206ESW,14,3,4,1.0,0,0,0,0,4,1.0,asocial
01JTNS7PQHWSEREKR6CK206ESW,14,4,4,1.0,1,0,31,3,4,1.0,asocial
01JTNS7PQHWSEREKR6CK206ESW,14,5,4,1.0,9,2,55,10,4,1.0,asocial
01JTNS7PQHWSEREKR6CK206ESW,14,6,4,1.0,0,0,1,0,4,1.0,asocial
01JTNS7PQHWSEREKR6CK206ESW,14,7,4,1.0,0,0,6,1,4,1.0,asocial
01JTNS7PQHWSEREKR6CK206ESW,14,8,4,1.0,0,0,0,0,4,1.0,asocial
01JTNS7PQHWSEREKR6CK206ESW,14,9,4,1.0,0,1,0,1,4,1.0,asocial
01JTNS7PQHWSEREKR6CK206ESW,15,0,4,1.0,0,0,3,1,4,1.0,asocial
01JTNS7PQHWSEREKR6CK206ESW,15,1,4,1.0,0,0,5,1,4,1.0,asocial
01JTNS7PQHWSEREKR6CK206ESW,15,2,4,1.0,0,0,1,0,4,1.0,asocial
01JTNS7PQHWSEREKR6CK206ESW,15,3,4,1.0,0,0,0,0,4,1.0,asocial
01JTNS7PQHWSEREKR6CK206ESW,15,4,4,1.0,2,0,35,4,4,1.0,asocial
01JTNS7PQHWSEREKR6CK206ESW,15,5,4,1.0,9,2,58,10,4,1.0,asocial
01JTNS7PQHWSEREKR6CK206ESW,15,6,4,1.0,0,0,1,0,4,1.0,asocial
01JTNS7PQHWSEREKR6CK206ESW,15,7,4,1.0,0,0,8,1,4,1.0,asocial
01JTNS7PQHWSEREKR6CK206ESW,15,8,4,1.0,0,0,0,0,4,1.0,asocial
01JTNS7PQHWSEREKR6CK206ESW,15,9,4,1.0,0,1,0,1,4,1.0,asocial
01JTNS7PQHWSEREKR6CK206ESW,16,0,4,0.0,0,0,3,1,4,1.0,asocial
01JTNS7PQHWSEREKR6CK206ESW,16,1,4,0.0,0,0,5,1,4,1.0,asocial
01JTNS7PQHWSEREKR6CK206ESW,16,2,4,0.0,0,0,1,0,4,1.0,asocial
01JTNS7PQHWSEREKR6CK206ESW,16,3,4,0.0,0,0,0,0,4,1.0,asocial
01JTNS7PQHWSEREKR6CK206ESW,16,4,4,0.0,3,0,39,4,4,1.0,asocial
01JTNS7PQHWSEREKR6CK206ESW,16,5,4,0.0,9,2,61,10,4,1.0,asocial
01JTNS7PQHWSEREKR6CK206ESW,16,6,4,0.0,0,0,1,0,4,1.0,asocial
01JTNS7PQHWSEREKR6CK206ESW,16,7,4,0.0,0,0,10,2,4,1.0,asocial
01JTNS7PQHWSEREKR6CK206ESW,16,8,4,0.0,0,0,0,0,4,1.0,asocial
01JTNS7PQHWSEREKR6CK206ESW,16,9,4,0.0,0,1,0,1,4,1.0,asocial
01JTNS7PQHWSEREKR6CK206ESW,17,0,5,1.0,0,0,3,1,4,0.0,asocial
01JTNS7PQHWSEREKR6CK206ESW,17,1,5,1.0,0,0,6,1,4,0.0,asocial
01JTNS7PQHWSEREKR6CK206ESW,17,2,5,1.0,0,0,1,0,4,0.0,asocial
01JTNS7PQHWSEREKR6CK206ESW,17,3,5,1.0,0,0,0,0,4,0.0,asocial
01JTNS7PQHWSEREKR6CK206ESW,17,4,5,1.0,3,1,42,5,4,0.0,asocial
01JTNS7PQHWSEREKR6CK206ESW,17,5,5,1.0,9,2,64,10,4,0.0,asocial
01JTNS7PQHWSEREKR6CK206ESW,17,6,5,1.0,0,0,1,0,4,0.0,asocial
01JTNS7PQHWSEREKR6CK206ESW,17,7,5,1.0,0,0,12,2,4,0.0,asocial
01JTNS7PQHWSEREKR6CK206ESW,17,8,5,1.0,0,0,0,0,4,0.0,asocial
01JTNS7PQHWSEREKR6CK206ESW,17,9,5,1.0,0,1,0,1,4,0.0,asocial
01JTNS7PQHWSEREKR6CK206ESW,18,0,5,1.0,0,0,3,1,5,1.0,asocial
01JTNS7PQHWSEREKR6CK206ESW,18,1,5,1.0,0,0,6,1,5,1.0,asocial
01JTNS7PQHWSEREKR6CK206ESW,18,2,5,1.0,0,0,1,0,5,1.0,asocial
01JTNS7PQHWSEREKR6CK206ESW,18,3,5,1.0,0,0,0,0,5,1.0,asocial
01JTNS7PQHWSEREKR6CK206ESW,18,4,5,1.0,3,1,46,5,5,1.0,asocial
01JTNS7PQHWSEREKR6CK206ESW,18,5,5,1.0,10,2,67,10,5,1.0,asocial
01JTNS7PQHWSEREKR6CK206ESW,18,6,5,1.0,0,0,1,0,5,1.0,asocial
01JTNS7PQHWSEREKR6CK206ESW,18,7,5,1.0,0,0,15,2,5,1.0,asocial
01JTNS7PQHWSEREKR6CK206ESW,18,8,5,1.0,0,0,0,0,5,1.0,asocial
01JTNS7PQHWSEREKR6CK206ESW,18,9,5,1.0,0,1,0,1,5,1.0,asocial
01JTNS7PQHWSEREKR6CK206ESW,19,0,5,1.0,0,0,3,1,5,1.0,asocial
01JTNS7PQHWSEREKR6CK206ESW,19,1,5,1.0,0,0,6,2,5,1.0,asocial
01JTNS7PQHWSEREKR6CK206ESW,19,2,5,1.0,0,0,1,0,5,1.0,asocial
01JTNS7PQHWSEREKR6CK206ESW,19,3,5,1.0,0,0,0,0,5,1.0,asocial
01JTNS7PQHWSEREKR6CK206ESW,19,4,5,1.0,3,1,47,6,5,1.0,asocial
01JTNS7PQHWSEREKR6CK206ESW,19,5,5,1.0,11,2,71,10,5,1.0,asocial
01JTNS7PQHWSEREKR6CK206ESW,19,6,5,1.0,0,0,1,0,5,1.0,asocial
01JTNS7PQHWSEREKR6CK206ESW,19,7,5,1.0,0,0,18,2,5,1.0,asocial
01JTNS7PQHWSEREKR6CK206ESW,19,8,5,1.0,0,0,0,0,5,1.0,asocial
01JTNS7PQHWSEREKR6CK206ESW,19,9,5,1.0,0,1,0,1,5,1.0,asocial
01JTNS7PQHWSEREKR6CK206ESW,20,0,5,1.0,0,0,3,1,5,1.0,asocial
01JTNS7PQHWSEREKR6CK206ESW,20,1,5,1.0,0,0,7,2,5,1.0,asocial
01JTNS7PQHWSEREKR6CK206ESW,20,2,5,1.0,0,0,1,0,5,1.0,asocial
01JTNS7PQHWSEREKR6CK206ESW,20,3,5,1.0,0,0,0,0,5,1.0,asocial
01JTNS7PQHWSEREKR6CK206ESW,20,4,5,1.0,3,1,48,7,5,1.0,asocial
01JTNS7PQHWSEREKR6CK206ESW,20,5,5,1.0,12,2,76,10,5,1.0,asocial
01JTNS7PQHWSEREKR6CK206ESW,20,6,5,1.0,0,0,1,0,5,1.0,asocial
01JTNS7PQHWSEREKR6CK206ESW,20,7,5,1.0,0,0,20,2,5,1.0,asocial
01JTNS7PQHWSEREKR6CK206ESW,20,8,5,1.0,0,0,0,0,5,1.0,asocial
01JTNS7PQHWSEREKR6CK206ESW,20,9,5,1.0,0,1,0,1,5,1.0,asocial
01JTNS7PQHWSEREKR6CK206ESW,21,0,5,1.0,0,0,3,1,5,1.0,asocial
01JTNS7PQHWSEREKR6CK206ESW,21,1,5,1.0,0,0,8,2,5,1.0,asocial
01JTNS7PQHWSEREKR6CK206ESW,21,2,5,1.0,0,0,1,0,5,1.0,asocial
01JTNS7PQHWSEREKR6CK206ESW,21,3,5,1.0,0,0,0,0,5,1.0,asocial
01JTNS7PQHWSEREKR6CK206ESW,21,4,5,1.0,3,1,48,7,5,1.0,asocial
01JTNS7PQHWSEREKR6CK206ESW,21,5,5,1.0,13,2,82,10,5,1.0,asocial
01JTNS7PQHWSEREKR6CK206ESW,21,6,5,1.0,0,0,1,0,5,1.0,asocial
01JTNS7PQHWSEREKR6CK206ESW,21,7,5,1.0,0,0,22,3,5,1.0,asocial
01JTNS7PQHWSEREKR6CK206ESW,21,8,5,1.0,0,0,0,0,5,1.0,asocial
01JTNS7PQHWSEREKR6CK206ESW,21,9,5,1.0,0,1,0,1,5,1.0,asocial
01JTNS7PQHWSEREKR6CK206ESW,22,0,5,1.0,0,0,3,1,5,1.0,asocial
01JTNS7PQHWSEREKR6CK206ESW,22,1,5,1.0,0,0,8,2,5,1.0,asocial
01JTNS7PQHWSEREKR6CK206ESW,22,2,5,1.0,0,0,1,0,5,1.0,asocial
01JTNS7PQHWSEREKR6CK206ESW,22,3,5,1.0,0,0,0,0,5,1.0,asocial
01JTNS7PQHWSEREKR6CK206ESW,22,4,5,1.0,3,1,48,7,5,1.0,asocial
01JTNS7PQHWSEREKR6CK206ESW,22,5,5,1.0,14,2,89,10,5,1.0,asocial
01JTNS7PQHWSEREKR6CK206ESW,22,6,5,1.0,0,0,1,0,5,1.0,asocial
01JTNS7PQHWSEREKR6CK206ESW,22,7,5,1.0,0,0,25,3,5,1.0,asocial
01JTNS7PQHWSEREKR6CK206ESW,22,8,5,1.0,0,0,0,0,5,1.0,asocial
01JTNS7PQHWSEREKR6CK206ESW,22,9,5,1.0,0,1,0,1,5,1.0,asocial
01JTNS7PQHWSEREKR6CK206ESW,23,0,5,1.0,0,0,4,1,5,1.0,asocial
01JTNS7PQHWSEREKR6CK206ESW,23,1,5,1.0,0,0,8,2,5,1.0,asocial
01JTNS7PQHWSEREKR6CK206ESW,23,2,5,1.0,0,0,1,0,5,1.0,asocial
01JTNS7PQHWSEREKR6CK206ESW,23,3,5,1.0,0,0,0,0,5,1.0,asocial
01JTNS7PQHWSEREKR6CK206ESW,23,4,5,1.0,3,1,48,7,5,1.0,asocial
01JTNS7PQHWSEREKR6CK206ESW,23,5,5,1.0,15,2,96,10,5,1.0,asocial
01JTNS7PQHWSEREKR6CK206ESW,23,6,5,1.0,0,0,1,0,5,1.0,asocial
01JTNS7PQHWSEREKR6CK206ESW,23,7,5,1.0,0,0,27,3,5,1.0,asocial
01JTNS7PQHWSEREKR6CK206ESW,23,8,5,1.0,0,0,0,0,5,1.0,asocial
01JTNS7PQHWSEREKR6CK206ESW,23,9,5,1.0,0,1,0,1,5,1.0,asocial
01JTNS7PQHWSEREKR6CK206ESW,24,0,5,1.0,0,0,5,1,5,1.0,asocial
01JTNS7PQHWSEREKR6CK206ESW,24,1,5,1.0,0,0,8,2,5,1.0,asocial
01JTNS7PQHWSEREKR6CK206ESW,24,2,5,1.0,0,0,1,0,5,1.0,asocial
01JTNS7PQHWSEREKR6CK206ESW,24,3,5,1.0,0,0,0,0,5,1.0,asocial
01JTNS7PQHWSEREKR6CK206ESW,24,4,5,1.0,3,1,48,7,5,1.0,asocial
01JTNS7PQHWSEREKR6CK206ESW,24,5,5,1.0,16,2,100,12,5,1.0,asocial
01JTNS7PQHWSEREKR6CK206ESW,24,6,5,1.0,0,0,1,0,5,1.0,asocial
01JTNS7PQHWSEREKR6CK206ESW,24,7,5,1.0,0,0,30,3,5,1.0,asocial
01JTNS7PQHWSEREKR6CK206ESW,24,8,5,1.0,0,0,0,0,5,1.0,asocial
01JTNS7PQHWSEREKR6CK206ESW,24,9,5,1.0,0,1,0,1,5,1.0,asocial
01JTNS7PQHWSEREKR6CK206ESW,25,0,5,1.0,0,0,6,1,5,1.0,asocial
01JTNS7PQHWSEREKR6CK206ESW,25,1,5,1.0,0,0,9,2,5,1.0,asocial
01JTNS7PQHWSEREKR6CK206ESW,25,2,5,1.0,0,0,1,0,5,1.0,asocial
01JTNS7PQHWSEREKR6CK206ESW,25,3,5,1.0,0,0,0,0,5,1.0,asocial
01JTNS7PQHWSEREKR6CK206ESW,25,4,5,1.0,3,1,48,7,5,1.0,asocial
01JTNS7PQHWSEREKR6CK206ESW,25,5,5,1.0,17,2,104,13,5,1.0,asocial
01JTNS7PQHWSEREKR6CK206ESW,25,6,5,1.0,0,0,1,0,5,1.0,asocial
01JTNS7PQHWSEREKR6CK206ESW,25,7,5,1.0,0,0,32,4,5,1.0,asocial
01JTNS7PQHWSEREKR6CK206ESW,25,8,5,1.0,0,0,0,0,5,1.0,asocial
01JTNS7PQHWSEREKR6CK206ESW,25,9,5,1.0,0,1,0,1,5,1.0,asocial
01JTNS7PQHWSEREKR6CK206ESW,26,0,5,1.0,0,0,7,1,5,1.0,asocial
01JTNS7PQHWSEREKR6CK206ESW,26,1,5,1.0,0,0,9,2,5,1.0,asocial
01JTNS7PQHWSEREKR6CK206ESW,26,2,5,1.0,0,0,1,0,5,1.0,asocial
01JTNS7PQHWSEREKR6CK206ESW,26,3,5,1.0,0,0,0,0,5,1.0,asocial
01JTNS7PQHWSEREKR6CK206ESW,26,4,5,1.0,3,1,48,7,5,1.0,asocial
01JTNS7PQHWSEREKR6CK206ESW,26,5,5,1.0,18,2,110,13,5,1.0,asocial
01JTNS7PQHWSEREKR6CK206ESW,26,6,5,1.0,0,0,1,0,5,1.0,asocial
01JTNS7PQHWSEREKR6CK206ESW,26,7,5,1.0,0,0,35,4,5,1.0,asocial
01JTNS7PQHWSEREKR6CK206ESW,26,8,5,1.0,0,0,0,0,5,1.0,asocial
01JTNS7PQHWSEREKR6CK206ESW,26,9,5,1.0,0,1,0,1,5,1.0,asocial
01JTNS7PQHWSEREKR6CK206ESW,27,0,5,1.0,0,0,8,1,5,1.0,asocial
01JTNS7PQHWSEREKR6CK206ESW,27,1,5,1.0,0,0,10,2,5,1.0,asocial
01JTNS7PQHWSEREKR6CK206ESW,27,2,5,1.0,0,0,1,0,5,1.0,asocial
01JTNS7PQHWSEREKR6CK206ESW,27,3,5,1.0,0,0,0,0,5,1.0,asocial
01JTNS7PQHWSEREKR6CK206ESW,27,4,5,1.0,3,1,49,7,5,1.0,asocial
01JTNS7PQHWSEREKR6CK206ESW,27,5,5,1.0,19,2,114,13,5,1.0,asocial
01JTNS7PQHWSEREKR6CK206ESW,27,6,5,1.0,0,0,1,0,5,1.0,asocial
01JTNS7PQHWSEREKR6CK206ESW,27,7,5,1.0,0,0,38,4,5,1.0,asocial
01JTNS7PQHWSEREKR6CK206ESW,27,8,5,1.0,0,0,0,0,5,1.0,asocial
01JTNS7PQHWSEREKR6CK206ESW,27,9,5,1.0,0,1,0,1,5,1.0,asocial
01JTNS7PQHWSEREKR6CK206ESW,28,0,5,1.0,0,0,10,1,5,1.0,asocial
01JTNS7PQHWSEREKR6CK206ESW,28,1,5,1.0,0,0,10,2,5,1.0,asocial
01JTNS7PQHWSEREKR6CK206ESW,28,2,5,1.0,0,0,1,0,5,1.0,asocial
01JTNS7PQHWSEREKR6CK206ESW,28,3,5,1.0,0,0,0,0,5,1.0,asocial
01JTNS7PQHWSEREKR6CK206ESW,28,4,5,1.0,3,1,50,7,5,1.0,asocial
01JTNS7PQHWSEREKR6CK206ESW,28,5,5,1.0,20,2,118,13,5,1.0,asocial
01JTNS7PQHWSEREKR6CK206ESW,28,6,5,1.0,0,0,1,0,5,1.0,asocial
01JTNS7PQHWSEREKR6CK206ESW,28,7,5,1.0,0,0,41,4,5,1.0,asocial
01JTNS7PQHWSEREKR6CK206ESW,28,8,5,1.0,0,0,0,0,5,1.0,asocial
01JTNS7PQHWSEREKR6CK206ESW,28,9,5,1.0,0,1,0,1,5,1.0,asocial
01JTNS7PQHWSEREKR6CK206ESW,29,0,5,1.0,0,0,10,1,5,1.0,asocial
01JTNS7PQHWSEREKR6CK206ESW,29,1,5,1.0,0,0,11,2,5,1.0,asocial
01JTNS7PQHWSEREKR6CK206ESW,29,2,5,1.0,0,0,1,0,5,1.0,asocial
01JTNS7PQHWSEREKR6CK206ESW,29,3,5,1.0,0,0,0,0,5,1.0,asocial
01JTNS7PQHWSEREKR6CK206ESW,29,4,5,1.0,3,1,50,7,5,1.0,asocial
01JTNS7PQHWSEREKR6CK206ESW,29,5,5,1.0,21,2,121,13,5,1.0,asocial
01JTNS7PQHWSEREKR6CK206ESW,29,6,5,1.0,0,0,2,0,5,1.0,asocial
01JTNS7PQHWSEREKR6CK206ESW,29,7,5,1.0,0,0,46,4,5,1.0,asocial
01JTNS7PQHWSEREKR6CK206ESW,29,8,5,1.0,0,0,0,0,5,1.0,asocial
01JTNS7PQHWSEREKR6CK206ESW,29,9,5,1.0,0,1,0,1,5,1.0,asocial
01JTNS7PQHWSEREKR6CK206ESW,30,0,5,1.0,0,0,10,1,5,1.0,asocial
01JTNS7PQHWSEREKR6CK206ESW,30,1,5,1.0,0,0,11,2,5,1.0,asocial
01JTNS7PQHWSEREKR6CK206ESW,30,2,5,1.0,0,0,1,0,5,1.0,asocial
01JTNS7PQHWSEREKR6CK206ESW,30,3,5,1.0,0,0,0,0,5,1.0,asocial
01JTNS7PQHWSEREKR6CK206ESW,30,4,5,1.0,3,1,51,7,5,1.0,asocial
01JTNS7PQHWSEREKR6CK206ESW,30,5,5,1.0,22,2,127,13,5,1.0,asocial
01JTNS7PQHWSEREKR6CK206ESW,30,6,5,1.0,0,0,2,0,5,1.0,asocial
01JTNS7PQHWSEREKR6CK206ESW,30,7,5,1.0,0,0,49,4,5,1.0,asocial
01JTNS7PQHWSEREKR6CK206ESW,30,8,5,1.0,0,0,0,0,5,1.0,asocial
01JTNS7PQHWSEREKR6CK206ESW,30,9,5,1.0,0,1,0,1,5,1.0,asocial
01JTNS7PQHWSEREKR6CK206ESW,31,0,5,1.0,0,0,11,1,5,1.0,asocial
01JTNS7PQHWSEREKR6CK206ESW,31,1,5,1.0,0,0,12,2,5,1.0,asocial
01JTNS7PQHWSEREKR6CK206ESW,31,2,5,1.0,0,0,1,0,5,1.0,asocial
01JTNS7PQHWSEREKR6CK206ESW,31,3,5,1.0,0,0,0,0,5,1.0,asocial
01JTNS7PQHWSEREKR6CK206ESW,31,4,5,1.0,3,1,51,7,5,1.0,asocial
01JTNS7PQHWSEREKR6CK206ESW,31,5,5,1.0,23,2,130,14,5,1.0,asocial
01JTNS7PQHWSEREKR6CK206ESW,31,6,5,1.0,0,0,2,0,5,1.0,asocial
01JTNS7PQHWSEREKR6CK206ESW,31,7,5,1.0,0,0,53,4,5,1.0,asocial
01JTNS7PQHWSEREKR6CK206ESW,31,8,5,1.0,0,0,0,0,5,1.0,asocial
01JTNS7PQHWSEREKR6CK206ESW,31,9,5,1.0,0,1,0,1,5,1.0,asocial
01JTNS7PQHWSEREKR6CK206ESW,32,0,5,1.0,0,0,11,1,5,1.0,asocial
01JTNS7PQHWSEREKR6CK206ESW,32,1,5,1.0,0,0,13,2,5,1.0,asocial
01JTNS7PQHWSEREKR6CK206ESW,32,2,5,1.0,0,0,1,0,5,1.0,asocial
01JTNS7PQHWSEREKR6CK206ESW,32,3,5,1.0,0,0,0,0,5,1.0,asocial
01JTNS7PQHWSEREKR6CK206ESW,32,4,5,1.0,3,1,52,7,5,1.0,asocial
01JTNS7PQHWSEREKR6CK206ESW,32,5,5,1.0,24,2,135,14,5,1.0,asocial
01JTNS7PQHWSEREKR6CK206ESW,32,6,5,1.0,0,0,2,0,5,1.0,asocial
01JTNS7PQHWSEREKR6CK206ESW,32,7,5,1.0,0,0,55,5,5,1.0,asocial
01JTNS7PQHWSEREKR6CK206ESW,32,8,5,1.0,0,0,0,0,5,1.0,asocial
01JTNS7PQHWSEREKR6CK206ESW,32,9,5,1.0,0,1,0,1,5,1.0,asocial
01JTNS7PQHWSEREKR6CK206ESW,33,0,5,1.0,0,0,11,1,5,1.0,asocial
01JTNS7PQHWSEREKR6CK206ESW,33,1,5,1.0,0,0,14,2,5,1.0,asocial
01JTNS7PQHWSEREKR6CK206ESW,33,2,5,1.0,0,0,1,0,5,1.0,asocial
01JTNS7PQHWSEREKR6CK206ESW,33,3,5,1.0,0,0,0,0,5,1.0,asocial
01JTNS7PQHWSEREKR6CK206ESW,33,4,5,1.0,3,1,52,7,5,1.0,asocial
01JTNS7PQHWSEREKR6CK206ESW,33,5,5,1.0,25,2,140,14,5,1.0,asocial
01JTNS7PQHWSEREKR6CK206ESW,33,6,5,1.0,0,0,3,0,5,1.0,asocial
01JTNS7PQHWSEREKR6CK206ESW,33,7,5,1.0,0,0,58,5,5,1.0,asocial
01JTNS7PQHWSEREKR6CK206ESW,33,8,5,1.0,0,0,0,0,5,1.0,asocial
01JTNS7PQHWSEREKR6CK206ESW,33,9,5,1.0,0,1,0,1,5,1.0,asocial
01JTNS7PQHWSEREKR6CK206ESW,34,0,5,1.0,0,0,12,1,5,1.0,asocial
01JTNS7PQHWSEREKR6CK206ESW,34,1,5,1.0,0,0,14,2,5,1.0,asocial
01JTNS7PQHWSEREKR6CK206ESW,34,2,5,1.0,0,0,1,0,5,1.0,asocial
01JTNS7PQHWSEREKR6CK206ESW,34,3,5,1.0,0,0,0,0,5,1.0,asocial
01JTNS7PQHWSEREKR6CK206ESW,34,4,5,1.0,3,1,52,7,5,1.0,asocial
01JTNS7PQHWSEREKR6CK206ESW,34,5,5,1.0,26,2,145,14,5,1.0,asocial
01JTNS7PQHWSEREKR6CK206ESW,34,6,5,1.0,0,0,4,0,5,1.0,asocial
01JTNS7PQHWSEREKR6CK206ESW,34,7,5,1.0,0,0,60,6,5,1.0,asocial
01JTNS7PQHWSEREKR6CK206ESW,34,8,5,1.0,0,0,0,0,5,1.0,asocial
01JTNS7PQHWSEREKR6CK206ESW,34,9,5,1.0,0,1,0,1,5,1.0,asocial
01JTNS7PQHWSEREKR6CK206ESW,35,0,5,1.0,0,0,12,1,5,1.0,asocial
01JTNS7PQHWSEREKR6CK206ESW,35,1,5,1.0,0,0,14,2,5,1.0,asocial
01JTNS7PQHWSEREKR6CK206ESW,35,2,5,1.0,0,0,1,0,5,1.0,asocial
01JTNS7PQHWSEREKR6CK206ESW,35,3,5,1.0,0,0,0,0,5,1.0,asocial
01JTNS7PQHWSEREKR6CK206ESW,35,4,5,1.0,3,1,53,7,5,1.0,asocial
01JTNS7PQHWSEREKR6CK206ESW,35,5,5,1.0,27,2,149,14,5,1.0,asocial
01JTNS7PQHWSEREKR6CK206ESW,35,6,5,1.0,0,0,6,0,5,1.0,asocial
01JTNS7PQHWSEREKR6CK206ESW,35,7,5,1.0,0,0,63,6,5,1.0,asocial
01JTNS7PQHWSEREKR6CK206ESW,35,8,5,1.0,0,0,0,0,5,1.0,asocial
01JTNS7PQHWSEREKR6CK206ESW,35,9,5,1.0,0,1,0,1,5,1.0,asocial
01JTNS7PQHWSEREKR6CK206ESW,36,0,5,1.0,0,0,12,1,5,1.0,asocial
01JTNS7PQHWSEREKR6CK206ESW,36,1,5,1.0,0,0,14,2,5,1.0,asocial
01JTNS7PQHWSEREKR6CK206ESW,36,2,5,1.0,0,0,1,0,5,1.0,asocial
01JTNS7PQHWSEREKR6CK206ESW,36,3,5,1.0,0,0,0,0,5,1.0,asocial
01JTNS7PQHWSEREKR6CK206ESW,36,4,5,1.0,3,1,53,7,5,1.0,asocial
01JTNS7PQHWSEREKR6CK206ESW,36,5,5,1.0,28,2,155,15,5,1.0,asocial
01JTNS7PQHWSEREKR6CK206ESW,36,6,5,1.0,0,0,8,0,5,1.0,asocial
01JTNS7PQHWSEREKR6CK206ESW,36,7,5,1.0,0,0,64,6,5,1.0,asocial
01JTNS7PQHWSEREKR6CK206ESW,36,8,5,1.0,0,0,0,0,5,1.0,asocial
01JTNS7PQHWSEREKR6CK206ESW,36,9,5,1.0,0,1,0,1,5,1.0,asocial
01JTNS7PQHWSEREKR6CK206ESW,37,0,5,1.0,0,0,12,1,5,1.0,asocial
01JTNS7PQHWSEREKR6CK206ESW,37,1,5,1.0,0,0,14,2,5,1.0,asocial
01JTNS7PQHWSEREKR6CK206ESW,37,2,5,1.0,0,0,1,0,5,1.0,asocial
01JTNS7PQHWSEREKR6CK206ESW,37,3,5,1.0,0,0,0,0,5,1.0,asocial
01JTNS7PQHWSEREKR6CK206ESW,37,4,5,1.0,3,1,53,7,5,1.0,asocial
01JTNS7PQHWSEREKR6CK206ESW,37,5,5,1.0,29,2,159,15,5,1.0,asocial
01JTNS7PQHWSEREKR6CK206ESW,37,6,5,1.0,0,0,11,1,5,1.0,asocial
01JTNS7PQHWSEREKR6CK206ESW,37,7,5,1.0,0,0,66,6,5,1.0,asocial
01JTNS7PQHWSEREKR6CK206ESW,37,8,5,1.0,0,0,0,0,5,1.0,asocial
01JTNS7PQHWSEREKR6CK206ESW,37,9,5,1.0,0,1,0,1,5,1.0,asocial
01JTNS7PQHWSEREKR6CK206ESW,38,0,5,1.0,0,0,12,1,5,1.0,asocial
01JTNS7PQHWSEREKR6CK206ESW,38,1,5,1.0,0,0,14,2,5,1.0,asocial
01JTNS7PQHWSEREKR6CK206ESW,38,2,5,1.0,0,0,2,0,5,1.0,asocial
01JTNS7PQHWSEREKR6CK206ESW,38,3,5,1.0,0,0,0,0,5,1.0,asocial
01JTNS7PQHWSEREKR6CK206ESW,38,4,5,1.0,3,1,53,7,5,1.0,asocial
01JTNS7PQHWSEREKR6CK206ESW,38,5,5,1.0,30,2,165,15,5,1.0,asocial
01JTNS7PQHWSEREKR6CK206ESW,38,6,5,1.0,0,0,13,1,5,1.0,asocial
01JTNS7PQHWSEREKR6CK206ESW,38,7,5,1.0,0,0,67,6,5,1.0,asocial
01JTNS7PQHWSEREKR6CK206ESW,38,8,5,1.0,0,0,0,0,5,1.0,asocial
01JTNS7PQHWSEREKR6CK206ESW,38,9,5,1.0,0,1,0,1,5,1.0,asocial
01JTNS7PQHWSEREKR6CK206ESW,39,0,5,1.0,0,0,12,1,5,1.0,asocial
01JTNS7PQHWSEREKR6CK206ESW,39,1,5,1.0,0,0,14,2,5,1.0,asocial
01JTNS7PQHWSEREKR6CK206ESW,39,2,5,1.0,0,0,2,0,5,1.0,asocial
01JTNS7PQHWSEREKR6CK206ESW,39,3,5,1.0,0,0,0,0,5,1.0,asocial
01JTNS7PQHWSEREKR6CK206ESW,39,4,5,1.0,3,1,53,7,5,1.0,asocial
01JTNS7PQHWSEREKR6CK206ESW,39,5,5,1.0,31,2,172,15,5,1.0,asocial
01JTNS7PQHWSEREKR6CK206ESW,39,6,5,1.0,0,0,15,1,5,1.0,asocial
01JTNS7PQHWSEREKR6CK206ESW,39,7,5,1.0,0,0,68,6,5,1.0,asocial
01JTNS7PQHWSEREKR6CK206ESW,39,8,5,1.0,0,0,0,0,5,1.0,asocial
01JTNS7PQHWSEREKR6CK206ESW,39,9,5,1.0,0,1,0,1,5,1.0,asocial
01JTNS7PQHWSEREKR6CK206ESW,40,0,5,1.0,0,0,12,1,5,1.0,asocial
01JTNS7PQHWSEREKR6CK206ESW,40,1,5,1.0,0,0,14,2,5,1.0,asocial
01JTNS7PQHWSEREKR6CK206ESW,40,2,5,1.0,0,0,2,0,5,1.0,asocial
01JTNS7PQHWSEREKR6CK206ESW,40,3,5,1.0,0,0,0,0,5,1.0,asocial
01JTNS7PQHWSEREKR6CK206ESW,40,4,5,1.0,3,1,53,7,5,1.0,asocial
01JTNS7PQHWSEREKR6CK206ESW,40,5,5,1.0,32,2,177,16,5,1.0,asocial
01JTNS7PQHWSEREKR6CK206ESW,40,6,5,1.0,0,0,18,1,5,1.0,asocial
01JTNS7PQHWSEREKR6CK206ESW,40,7,5,1.0,0,0,69,6,5,1.0,asocial
01JTNS7PQHWSEREKR6CK206ESW,40,8,5,1.0,0,0,0,0,5,1.0,asocial
01JTNS7PQHWSEREKR6CK206ESW,40,9,5,1.0,0,1,0,1,5,1.0,asocial
01JTNS7PQHWSEREKR6CK206ESW,41,0,5,1.0,0,0,12,1,5,1.0,asocial
01JTNS7PQHWSEREKR6CK206ESW,41,1,5,1.0,0,0,14,2,5,1.0,asocial
01JTNS7PQHWSEREKR6CK206ESW,41,2,5,1.0,0,0,3,0,5,1.0,asocial
01JTNS7PQHWSEREKR6CK206ESW,41,3,5,1.0,0,0,0,0,5,1.0,asocial
01JTNS7PQHWSEREKR6CK206ESW,41,4,5,1.0,3,1,53,7,5,1.0,asocial
01JTNS7PQHWSEREKR6CK206ESW,41,5,5,1.0,33,2,184,16,5,1.0,asocial
01JTNS7PQHWSEREKR6CK206ESW,41,6,5,1.0,0,0,19,1,5,1.0,asocial
01JTNS7PQHWSEREKR6CK206ESW,41,7,5,1.0,0,0,70,6,5,1.0,asocial
01JTNS7PQHWSEREKR6CK206ESW,41,8,5,1.0,0,0,0,0,5,1.0,asocial
01JTNS7PQHWSEREKR6CK206ESW,41,9,5,1.0,0,1,0,1,5,1.0,asocial
01JTNS7PQHWSEREKR6CK206ESW,42,0,5,1.0,0,0,12,1,5,1.0,asocial
01JTNS7PQHWSEREKR6CK206ESW,42,1,5,1.0,0,0,14,2,5,1.0,asocial
01JTNS7PQHWSEREKR6CK206ESW,42,2,5,1.0,0,0,3,0,5,1.0,asocial
01JTNS7PQHWSEREKR6CK206ESW,42,3,5,1.0,0,0,0,0,5,1.0,asocial
01JTNS7PQHWSEREKR6CK206ESW,42,4,5,1.0,3,1,53,7,5,1.0,asocial
01JTNS7PQHWSEREKR6CK206ESW,42,5,5,1.0,34,2,192,16,5,1.0,asocial
01JTNS7PQHWSEREKR6CK206ESW,42,6,5,1.0,0,0,19,1,5,1.0,asocial
01JTNS7PQHWSEREKR6CK206ESW,42,7,5,1.0,0,0,72,6,5,1.0,asocial
01JTNS7PQHWSEREKR6CK206ESW,42,8,5,1.0,0,0,0,0,5,1.0,asocial
01JTNS7PQHWSEREKR6CK206ESW,42,9,5,1.0,0,1,0,1,5,1.0,asocial
01JTNS7PQHWSEREKR6CK206ESW,43,0,5,1.0,0,0,12,1,5,1.0,asocial
01JTNS7PQHWSEREKR6CK206ESW,43,1,5,1.0,0,0,14,2,5,1.0,asocial
01JTNS7PQHWSEREKR6CK206ESW,43,2,5,1.0,0,0,3,0,5,1.0,asocial
01JTNS7PQHWSEREKR6CK206ESW,43,3,5,1.0,0,0,0,0,5,1.0,asocial
01JTNS7PQHWSEREKR6CK206ESW,43,4,5,1.0,3,1,53,7,5,1.0,asocial
01JTNS7PQHWSEREKR6CK206ESW,43,5,5,1.0,35,2,197,18,5,1.0,asocial
01JTNS7PQHWSEREKR6CK206ESW,43,6,5,1.0,0,0,20,1,5,1.0,asocial
01JTNS7PQHWSEREKR6CK206ESW,43,7,5,1.0,0,0,73,6,5,1.0,asocial
01JTNS7PQHWSEREKR6CK206ESW,43,8,5,1.0,0,0,1,0,5,1.0,asocial
01JTNS7PQHWSEREKR6CK206ESW,43,9,5,1.0,0,1,0,1,5,1.0,asocial
01JTNS7PQHWSEREKR6CK206ESW,44,0,5,0.0,0,0,13,1,5,1.0,asocial
01JTNS7PQHWSEREKR6CK206ESW,44,1,5,0.0,0,0,14,2,5,1.0,asocial
01JTNS7PQHWSEREKR6CK206ESW,44,2,5,0.0,0,0,3,0,5,1.0,asocial
01JTNS7PQHWSEREKR6CK206ESW,44,3,5,0.0,0,0,0,0,5,1.0,asocial
01JTNS7PQHWSEREKR6CK206ESW,44,4,5,0.0,3,1,53,7,5,1.0,asocial
01JTNS7PQHWSEREKR6CK206ESW,44,5,5,0.0,36,2,203,19,5,1.0,asocial
01JTNS7PQHWSEREKR6CK206ESW,44,6,5,0.0,0,0,20,1,5,1.0,asocial
01JTNS7PQHWSEREKR6CK206ESW,44,7,5,0.0,0,0,74,6,5,1.0,asocial
01JTNS7PQHWSEREKR6CK206ESW,44,8,5,0.0,0,0,2,0,5,1.0,asocial
01JTNS7PQHWSEREKR6CK206ESW,44,9,5,0.0,0,1,0,1,5,1.0,asocial
01JTNS7PQHWSEREKR6CK206ESW,45,0,5,1.0,0,0,13,1,5,0.0,asocial
01JTNS7PQHWSEREKR6CK206ESW,45,1,5,1.0,0,0,14,2,5,0.0,asocial
01JTNS7PQHWSEREKR6CK206ESW,45,2,5,1.0,0,0,3,0,5,0.0,asocial
01JTNS7PQHWSEREKR6CK206ESW,45,3,5,1.0,0,0,0,0,5,0.0,asocial
01JTNS7PQHWSEREKR6CK206ESW,45,4,5,1.0,3,1,53,7,5,0.0,asocial
01JTNS7PQHWSEREKR6CK206ESW,45,5,5,1.0,36,3,206,22,5,0.0,asocial
01JTNS7PQHWSEREKR6CK206ESW,45,6,5,1.0,0,0,21,1,5,0.0,asocial
01JTNS7PQHWSEREKR6CK206ESW,45,7,5,1.0,0,0,76,6,5,0.0,asocial
01JTNS7PQHWSEREKR6CK206ESW,45,8,5,1.0,0,0,3,0,5,0.0,asocial
01JTNS7PQHWSEREKR6CK206ESW,45,9,5,1.0,0,1,0,1,5,0.0,asocial
01JTNS7PQHWSEREKR6CK206ESW,46,0,5,1.0,0,0,13,1,5,1.0,asocial
01JTNS7PQHWSEREKR6CK206ESW,46,1,5,1.0,0,0,14,2,5,1.0,asocial
01JTNS7PQHWSEREKR6CK206ESW,46,2,5,1.0,0,0,3,0,5,1.0,asocial
01JTNS7PQHWSEREKR6CK206ESW,46,3,5,1.0,0,0,0,0,5,1.0,asocial
01JTNS7PQHWSEREKR6CK206ESW,46,4,5,1.0,3,1,54,7,5,1.0,asocial
01JTNS7PQHWSEREKR6CK206ESW,46,5,5,1.0,37,3,209,23,5,1.0,asocial
01JTNS7PQHWSEREKR6CK206ESW,46,6,5,1.0,0,0,21,1,5,1.0,asocial
01JTNS7PQHWSEREKR6CK206ESW,46,7,5,1.0,0,0,80,6,5,1.0,asocial
01JTNS7PQHWSEREKR6CK206ESW,46,8,5,1.0,0,0,4,0,5,1.0,asocial
01JTNS7PQHWSEREKR6CK206ESW,46,9,5,1.0,0,1,0,1,5,1.0,asocial
01JTNS7PQHWSEREKR6CK206ESW,47,0,5,1.0,0,0,13,1,5,1.0,asocial
01JTNS7PQHWSEREKR6CK206ESW,47,1,5,1.0,0,0,14,2,5,1.0,asocial
01JTNS7PQHWSEREKR6CK206ESW,47,2,5,1.0,0,0,3,0,5,1.0,asocial
01JTNS7PQHWSEREKR6CK206ESW,47,3,5,1.0,0,0,0,0,5,1.0,asocial
01JTNS7PQHWSEREKR6CK206ESW,47,4,5,1.0,3,1,54,7,5,1.0,asocial
01JTNS7PQHWSEREKR6CK206ESW,47,5,5,1.0,38,3,214,23,5,1.0,asocial
01JTNS7PQHWSEREKR6CK206ESW,47,6,5,1.0,0,0,22,1,5,1.0,asocial
01JTNS7PQHWSEREKR6CK206ESW,47,7,5,1.0,0,0,83,6,5,1.0,asocial
01JTNS7PQHWSEREKR6CK206ESW,47,8,5,1.0,0,0,5,0,5,1.0,asocial
01JTNS7PQHWSEREKR6CK206ESW,47,9,5,1.0,0,1,0,1,5,1.0,asocial
01JTNS7PQHWSEREKR6CK206ESW,48,0,5,1.0,0,0,13,1,5,1.0,asocial
01JTNS7PQHWSEREKR6CK206ESW,48,1,5,1.0,0,0,14,2,5,1.0,asocial
01JTNS7PQHWSEREKR6CK206ESW,48,2,5,1.0,0,0,4,0,5,1.0,asocial
01JTNS7PQHWSEREKR6CK206ESW,48,3,5,1.0,0,0,0,0,5,1.0,asocial
01JTNS7PQHWSEREKR6CK206ESW,48,4,5,1.0,3,1,54,7,5,1.0,asocial
01JTNS7PQHWSEREKR6CK206ESW,48,5,5,1.0,39,3,219,23,5,1.0,asocial
01JTNS7PQHWSEREKR6CK206ESW,48,6,5,1.0,0,0,22,1,5,1.0,asocial
01JTNS7PQHWSEREKR6CK206ESW,48,7,5,1.0,0,0,86,7,5,1.0,asocial
01JTNS7PQHWSEREKR6CK206ESW,48,8,5,1.0,0,0,5,0,5,1.0,asocial
01JTNS7PQHWSEREKR6CK206ESW,48,9,5,1.0,0,1,0,1,5,1.0,asocial
01JTNS7PQHWSEREKR6CK206ESW,49,0,5,1.0,0,0,13,1,5,1.0,asocial
01JTNS7PQHWSEREKR6CK206ESW,49,1,5,1.0,0,0,14,2,5,1.0,asocial
01JTNS7PQHWSEREKR6CK206ESW,49,2,5,1.0,0,0,4,0,5,1.0,asocial
01JTNS7PQHWSEREKR6CK206ESW,49,3,5,1.0,0,0,1,0,5,1.0,asocial
01JTNS7PQHWSEREKR6CK206ESW,49,4,5,1.0,3,1,54,7,5,1.0,asocial
01JTNS7PQHWSEREKR6CK206ESW,49,5,5,1.0,40,3,224,23,5,1.0,asocial
01JTNS7PQHWSEREKR6CK206ESW,49,6,5,1.0,0,0,23,2,5,1.0,asocial
01JTNS7PQHWSEREKR6CK206ESW,49,7,5,1.0,0,0,88,7,5,1.0,asocial
01JTNS7PQHWSEREKR6CK206ESW,49,8,5,1.0,0,0,5,0,5,1.0,asocial
01JTNS7PQHWSEREKR6CK206ESW,49,9,5,1.0,0,1,0,1,5,1.0,asocial
01JTNS7PQHWSEREKR6CK206ESW,50,0,5,1.0,0,0,13,1,5,1.0,asocial
01JTNS7PQHWSEREKR6CK206ESW,50,1,5,1.0,0,0,14,2,5,1.0,asocial
01JTNS7PQHWSEREKR6CK206ESW,50,2,5,1.0,0,0,4,0,5,1.0,asocial
01JTNS7PQHWSEREKR6CK206ESW,50,3,5,1.0,0,0,2,0,5,1.0,asocial
01JTNS7PQHWSEREKR6CK206ESW,50,4,5,1.0,3,1,54,7,5,1.0,asocial
01JTNS7PQHWSEREKR6CK206ESW,50,5,5,1.0,41,3,228,24,5,1.0,asocial
01JTNS7PQHWSEREKR6CK206ESW,50,6,5,1.0,0,0,24,2,5,1.0,asocial
01JTNS7PQHWSEREKR6CK206ESW,50,7,5,1.0,0,0,91,7,5,1.0,asocial
01JTNS7PQHWSEREKR6CK206ESW,50,8,5,1.0,0,0,5,0,5,1.0,asocial
01JTNS7PQHWSEREKR6CK206ESW,50,9,5,1.0,0,1,0,1,5,1.0,asocial
01JTNS7PQHWSEREKR6CK206ESW,51,0,5,1.0,0,0,13,1,5,1.0,asocial
01JTNS7PQHWSEREKR6CK206ESW,51,1,5,1.0,0,0,14,2,5,1.0,asocial
01JTNS7PQHWSEREKR6CK206ESW,51,2,5,1.0,0,0,4,0,5,1.0,asocial
01JTNS7PQHWSEREKR6CK206ESW,51,3,5,1.0,0,0,2,0,5,1.0,asocial
01JTNS7PQHWSEREKR6CK206ESW,51,4,5,1.0,3,1,54,7,5,1.0,asocial
01JTNS7PQHWSEREKR6CK206ESW,51,5,5,1.0,42,3,233,24,5,1.0,asocial
01JTNS7PQHWSEREKR6CK206ESW,51,6,5,1.0,0,0,24,2,5,1.0,asocial
01JTNS7PQHWSEREKR6CK206ESW,51,7,5,1.0,0,0,93,9,5,1.0,asocial
01JTNS7PQHWSEREKR6CK206ESW,51,8,5,1.0,0,0,5,0,5,1.0,asocial
01JTNS7PQHWSEREKR6CK206ESW,51,9,5,1.0,0,1,1,1,5,1.0,asocial
01JTNS7T84SCKGMTGACRJQJW6D,3,0,5,1.0,0,0,2,0,-1,,asocial
01JTNS7T84SCKGMTGACRJQJW6D,3,1,5,1.0,0,0,2,1,-1,,asocial
01JTNS7T84SCKGMTGACRJQJW6D,3,2,5,1.0,0,0,1,0,-1,,asocial
01JTNS7T84SCKGMTGACRJQJW6D,3,3,5,1.0,0,0,0,0,-1,,asocial
01JTNS7T84SCKGMTGACRJQJW6D,3,4,5,1.0,0,0,2,0,-1,,asocial
01JTNS7T84SCKGMTGACRJQJW6D,3,5,5,1.0,0,0,4,0,-1,,asocial
01JTNS7T84SCKGMTGACRJQJW6D,3,6,5,1.0,0,0,1,0,-1,,asocial
01JTNS7T84SCKGMTGACRJQJW6D,3,7,5,1.0,0,0,1,0,-1,,asocial
01JTNS7T84SCKGMTGACRJQJW6D,3,8,5,1.0,0,0,0,0,-1,,asocial
01JTNS7T84SCKGMTGACRJQJW6D,3,9,5,1.0,0,0,0,1,-1,,asocial
01JTNS7T84SCKGMTGACRJQJW6D,4,0,5,1.0,0,0,2,0,5,1.0,asocial
01JTNS7T84SCKGMTGACRJQJW6D,4,1,5,1.0,0,0,2,1,5,1.0,asocial
01JTNS7T84SCKGMTGACRJQJW6D,4,2,5,1.0,0,0,1,0,5,1.0,asocial
01JTNS7T84SCKGMTGACRJQJW6D,4,3,5,1.0,0,0,0,0,5,1.0,asocial
01JTNS7T84SCKGMTGACRJQJW6D,4,4,5,1.0,0,0,2,0,5,1.0,asocial
01JTNS7T84SCKGMTGACRJQJW6D,4,5,5,1.0,1,0,12,0,5,1.0,asocial
01JTNS7T84SCKGMTGACRJQJW6D,4,6,5,1.0,0,0,1,0,5,1.0,asocial
01JTNS7T84SCKGMTGACRJQJW6D,4,7,5,1.0,0,0,1,0,5,1.0,asocial
01JTNS7T84SCKGMTGACRJQJW6D,4,8,5,1.0,0,0,0,0,5,1.0,asocial
01JTNS7T84SCKGMTGACRJQJW6D,4,9,5,1.0,0,0,0,1,5,1.0,asocial
01JTNS7T84SCKGMTGACRJQJW6D,5,0,5,1.0,0,0,2,1,5,1.0,asocial
01JTNS7T84SCKGMTGACRJQJW6D,5,1,5,1.0,0,0,2,1,5,1.0,asocial
01JTNS7T84SCKGMTGACRJQJW6D,5,2,5,1.0,0,0,1,0,5,1.0,asocial
01JTNS7T84SCKGMTGACRJQJW6D,5,3,5,1.0,0,0,0,0,5,1.0,asocial
01JTNS7T84SCKGMTGACRJQJW6D,5,4,5,1.0,0,0,2,0,5,1.0,asocial
01JTNS7T84SCKGMTGACRJQJW6D,5,5,5,1.0,2,0,20,0,5,1.0,asocial
01JTNS7T84SCKGMTGACRJQJW6D,5,6,5,1.0,0,0,1,0,5,1.0,asocial
01JTNS7T84SCKGMTGACRJQJW6D,5,7,5,1.0,0,0,1,0,5,1.0,asocial
01JTNS7T84SCKGMTGACRJQJW6D,5,8,5,1.0,0,0,0,0,5,1.0,asocial
01JTNS7T84SCKGMTGACRJQJW6D,5,9,5,1.0,0,0,0,1,5,1.0,asocial
01JTNS7T84SCKGMTGACRJQJW6D,6,0,5,1.0,0,0,2,1,5,1.0,asocial
01JTNS7T84SCKGMTGACRJQJW6D,6,1,5,1.0,0,0,3,1,5,1.0,asocial
01JTNS7T84SCKGMTGACRJQJW6D,6,2,5,1.0,0,0,1,0,5,1.0,asocial
01JTNS7T84SCKGMTGACRJQJW6D,6,3,5,1.0,0,0,0,0,5,1.0,asocial
01JTNS7T84SCKGMTGACRJQJW6D,6,4,5,1.0,0,0,3,0,5,1.0,asocial
01JTNS7T84SCKGMTGACRJQJW6D,6,5,5,1.0,3,0,27,0,5,1.0,asocial
01JTNS7T84SCKGMTGACRJQJW6D,6,6,5,1.0,0,0,1,0,5,1.0,asocial
01JTNS7T84SCKGMTGACRJQJW6D,6,7,5,1.0,0,0,1,0,5,1.0,asocial
01JTNS7T84SCKGMTGACRJQJW6D,6,8,5,1.0,0,0,0,0,5,1.0,asocial
01JTNS7T84SCKGMTGACRJQJW6D,6,9,5,1.0,0,0,0,1,5,1.0,asocial
01JTNS7T84SCKGMTGACRJQJW6D,7,0,5,1.0,0,0,2,1,5,1.0,asocial
01JTNS7T84SCKGMTGACRJQJW6D,7,1,5,1.0,0,0,3,1,5,1.0,asocial
01JTNS7T84SCKGMTGACRJQJW6D,7,2,5,1.0,0,0,1,0,5,1.0,asocial
01JTNS7T84SCKGMTGACRJQJW6D,7,3,5,1.0,0,0,0,0,5,1.0,asocial
01JTNS7T84SCKGMTGACRJQJW6D,7,4,5,1.0,0,0,3,0,5,1.0,asocial
01JTNS7T84SCKGMTGACRJQJW6D,7,5,5,1.0,4,0,33,2,5,1.0,asocial
01JTNS7T84SCKGMTGACRJQJW6D,7,6,5,1.0,0,0,1,0,5,1.0,asocial
01JTNS7T84SCKGMTGACRJQJW6D,7,7,5,1.0,0,0,1,0,5,1.0,asocial
01JTNS7T84SCKGMTGACRJQJW6D,7,8,5,1.0,0,0,0,0,5,1.0,asocial
01JTNS7T84SCKGMTGACRJQJW6D,7,9,5,1.0,0,0,0,1,5,1.0,asocial
01JTNS7T84SCKGMTGACRJQJW6D,8,0,5,1.0,0,0,2,1,5,1.0,asocial
01JTNS7T84SCKGMTGACRJQJW6D,8,1,5,1.0,0,0,3,1,5,1.0,asocial
01JTNS7T84SCKGMTGACRJQJW6D,8,2,5,1.0,0,0,1,0,5,1.0,asocial
01JTNS7T84SCKGMTGACRJQJW6D,8,3,5,1.0,0,0,0,0,5,1.0,asocial
01JTNS7T84SCKGMTGACRJQJW6D,8,4,5,1.0,0,0,4,0,5,1.0,asocial
01JTNS7T84SCKGMTGACRJQJW6D,8,5,5,1.0,5,0,36,8,5,1.0,asocial
01JTNS7T84SCKGMTGACRJQJW6D,8,6,5,1.0,0,0,1,0,5,1.0,asocial
01JTNS7T84SCKGMTGACRJQJW6D,8,7,5,1.0,0,0,1,0,5,1.0,asocial
01JTNS7T84SCKGMTGACRJQJW6D,8,8,5,1.0,0,0,0,0,5,1.0,asocial
01JTNS7T84SCKGMTGACRJQJW6D,8,9,5,1.0,0,0,0,1,5,1.0,asocial
01JTNS7T84SCKGMTGACRJQJW6D,9,0,5,1.0,0,0,3,1,5,1.0,asocial
01JTNS7T84SCKGMTGACRJQJW6D,9,1,5,1.0,0,0,3,1,5,1.0,asocial
01JTNS7T84SCKGMTGACRJQJW6D,9,2,5,1.0,0,0,1,0,5,1.0,asocial
01JTNS7T84SCKGMTGACRJQJW6D,9,3,5,1.0,0,0,0,0,5,1.0,asocial
01JTNS7T84SCKGMTGACRJQJW6D,9,4,5,1.0,0,0,7,0,5,1.0,asocial
01JTNS7T84SCKGMTGACRJQJW6D,9,5,5,1.0,6,0,41,8,5,1.0,asocial
01JTNS7T84SCKGMTGACRJQJW6D,9,6,5,1.0,0,0,1,0,5,1.0,asocial
01JTNS7T84SCKGMTGACRJQJW6D,9,7,5,1.0,0,0,2,0,5,1.0,asocial
01JTNS7T84SCKGMTGACRJQJW6D,9,8,5,1.0,0,0,0,0,5,1.0,asocial
01JTNS7T84SCKGMTGACRJQJW6D,9,9,5,1.0,0,0,0,1,5,1.0,asocial
01JTNS7T84SCKGMTGACRJQJW6D,10,0,4,1.0,0,0,3,1,5,1.0,asocial
01JTNS7T84SCKGMTGACRJQJW6D,10,1,4,1.0,0,0,3,1,5,1.0,asocial
01JTNS7T84SCKGMTGACRJQJW6D,10,2,4,1.0,0,0,1,0,5,1.0,asocial
01JTNS7T84SCKGMTGACRJQJW6D,10,3,4,1.0,0,0,0,0,5,1.0,asocial
01JTNS7T84SCKGMTGACRJQJW6D,10,4,4,1.0,0,0,12,0,5,1.0,asocial
01JTNS7T84SCKGMTGACRJQJW6D,10,5,4,1.0,7,0,46,8,5,1.0,asocial
01JTNS7T84SCKGMTGACRJQJW6D,10,6,4,1.0,0,0,1,0,5,1.0,asocial
01JTNS7T84SCKGMTGACRJQJW6D,10,7,4,1.0,0,0,2,0,5,1.0,asocial
01JTNS7T84SCKGMTGACRJQJW6D,10,8,4,1.0,0,0,0,0,5,1.0,asocial
01JTNS7T84SCKGMTGACRJQJW6D,10,9,4,1.0,0,0,0,1,5,1.0,asocial
01JTNS7T84SCKGMTGACRJQJW6D,11,0,4,1.0,0,0,3,1,4,1.0,asocial
01JTNS7T84SCKGMTGACRJQJW6D,11,1,4,1.0,0,0,4,1,4,1.0,asocial
01JTNS7T84SCKGMTGACRJQJW6D,11,2,4,1.0,0,0,1,0,4,1.0,asocial
01JTNS7T84SCKGMTGACRJQJW6D,11,3,4,1.0,0,0,0,0,4,1.0,asocial
01JTNS7T84SCKGMTGACRJQJW6D,11,4,4,1.0,1,0,17,1,4,1.0,asocial
01JTNS7T84SCKGMTGACRJQJW6D,11,5,4,1.0,7,0,48,8,4,1.0,asocial
01JTNS7T84SCKGMTGACRJQJW6D,11,6,4,1.0,0,0,1,0,4,1.0,asocial
01JTNS7T84SCKGMTGACRJQJW6D,11,7,4,1.0,0,0,3,0,4,1.0,asocial
01JTNS7T84SCKGMTGACRJQJW6D,11,8,4,1.0,0,0,0,0,4,1.0,asocial
01JTNS7T84SCKGMTGACRJQJW6D,11,9,4,1.0,0,0,0,1,4,1.0,asocial
01JTNS7T84SCKGMTGACRJQJW6D,12,0,4,1.0,0,0,3,1,4,1.0,asocial
01JTNS7T84SCKGMTGACRJQJW6D,12,1,4,1.0,0,0,5,1,4,1.0,asocial
01JTNS7T84SCKGMTGACRJQJW6D,12,2,4,1.0,0,0,1,0,4,1.0,asocial
01JTNS7T84SCKGMTGACRJQJW6D,12,3,4,1.0,0,0,0,0,4,1.0,asocial
01JTNS7T84SCKGMTGACRJQJW6D,12,4,4,1.0,2,0,22,2,4,1.0,asocial
01JTNS7T84SCKGMTGACRJQJW6D,12,5,4,1.0,7,0,49,9,4,1.0,asocial
01JTNS7T84SCKGMTGACRJQJW6D,12,6,4,1.0,0,0,1,0,4,1.0,asocial
01JTNS7T84SCKGMTGACRJQJW6D,12,7,4,1.0,0,0,4,0,4,1.0,asocial
01JTNS7T84SCKGMTGACRJQJW6D,12,8,4,1.0,0,0,0,0,4,1.0,asocial
01JTNS7T84SCKGMTGACRJQJW6D,12,9,4,1.0,0,0,0,1,4,1.0,asocial
01JTNS7T84SCKGMTGACRJQJW6D,13,0,5,1.0,0,0,3,1,4,1.0,asocial
01JTNS7T84SCKGMTGACRJQJW6D,13,1,5,1.0,0,0,5,1,4,1.0,asocial
01JTNS7T84SCKGMTGACRJQJW6D,13,2,5,1.0,0,0,1,0,4,1.0,asocial
01JTNS7T84SCKGMTGACRJQJW6D,13,3,5,1.0,0,0,0,0,4,1.0,asocial
01JTNS7T84SCKGMTGACRJQJW6D,13,4,5,1.0,3,0,26,2,4,1.0,asocial
01JTNS7T84SCKGMTGACRJQJW6D,13,5,5,1.0,7,0,52,10,4,1.0,asocial
01JTNS7T84SCKGMTGACRJQJW6D,13,6,5,1.0,0,0,1,0,4,1.0,asocial
01JTNS7T84SCKGMTGACRJQJW6D,13,7,5,1.0,0,0,5,1,4,1.0,asocial
01JTNS7T84SCKGMTGACRJQJW6D,13,8,5,1.0,0,0,0,0,4,1.0,asocial
01JTNS7T84SCKGMTGACRJQJW6D,13,9,5,1.0,0,0,0,1,4,1.0,asocial
01JTNS7T84SCKGMTGACRJQJW6D,14,0,5,1.0,0,0,3,1,5,1.0,asocial
01JTNS7T84SCKGMTGACRJQJW6D,14,1,5,1.0,0,0,5,1,5,1.0,asocial
01JTNS7T84SCKGMTGACRJQJW6D,14,2,5,1.0,0,0,1,0,5,1.0,asocial
01JTNS7T84SCKGMTGACRJQJW6D,14,3,5,1.0,0,0,0,0,5,1.0,asocial
01JTNS7T84SCKGMTGACRJQJW6D,14,4,5,1.0,3,0,31,3,5,1.0,asocial
01JTNS7T84SCKGMTGACRJQJW6D,14,5,5,1.0,8,0,55,10,5,1.0,asocial
01JTNS7T84SCKGMTGACRJQJW6D,14,6,5,1.0,0,0,1,0,5,1.0,asocial
01JTNS7T84SCKGMTGACRJQJW6D,14,7,5,1.0,0,0,6,1,5,1.0,asocial
01JTNS7T84SCKGMTGACRJQJW6D,14,8,5,1.0,0,0,0,0,5,1.0,asocial
01JTNS7T84SCKGMTGACRJQJW6D,14,9,5,1.0,0,0,0,1,5,1.0,asocial
01JTNS7T84SCKGMTGACRJQJW6D,15,0,5,1.0,0,0,3,1,5,1.0,asocial
01JTNS7T84SCKGMTGACRJQJW6D,15,1,5,1.0,0,0,5,1,5,1.0,asocial
01JTNS7T84SCKGMTGACRJQJW6D,15,2,5,1.0,0,0,1,0,5,1.0,asocial
01JTNS7T84SCKGMTGACRJQJW6D,15,3,5,1.0,0,0,0,0,5,1.0,asocial
01JTNS7T84SCKGMTGACRJQJW6D,15,4,5,1.0,3,0,35,4,5,1.0,asocial
01JTNS7T84SCKGMTGACRJQJW6D,15,5,5,1.0,9,0,58,10,5,1.0,asocial
01JTNS7T84SCKGMTGACRJQJW6D,15,6,5,1.0,0,0,1,0,5,1.0,asocial
01JTNS7T84SCKGMTGACRJQJW6D,15,7,5,1.0,0,0,8,1,5,1.0,asocial
01JTNS7T84SCKGMTGACRJQJW6D,15,8,5,1.0,0,0,0,0,5,1.0,asocial
01JTNS7T84SCKGMTGACRJQJW6D,15,9,5,1.0,0,0,0,1,5,1.0,asocial
01JTNS7T84SCKGMTGACRJQJW6D,16,0,5,1.0,0,0,3,1,5,1.0,asocial
01JTNS7T84SCKGMTGACRJQJW6D,16,1,5,1.0,0,0,5,1,5,1.0,asocial
01JTNS7T84SCKGMTGACRJQJW6D,16,2,5,1.0,0,0,1,0,5,1.0,asocial
01JTNS7T84SCKGMTGACRJQJW6D,16,3,5,1.0,0,0,0,0,5,1.0,asocial
01JTNS7T84SCKGMTGACRJQJW6D,16,4,5,1.0,3,0,39,4,5,1.0,asocial
01JTNS7T84SCKGMTGACRJQJW6D,16,5,5,1.0,10,0,61,10,5,1.0,asocial
01JTNS7T84SCKGMTGACRJQJW6D,16,6,5,1.0,0,0,1,0,5,1.0,asocial
01JTNS7T84SCKGMTGACRJQJW6D,16,7,5,1.0,0,0,10,2,5,1.0,asocial
01JTNS7T84SCKGMTGACRJQJW6D,16,8,5,1.0,0,0,0,0,5,1.0,asocial
01JTNS7T84SCKGMTGACRJQJW6D,16,9,5,1.0,0,0,0,1,5,1.0,asocial
01JTNS7T84SCKGMTGACRJQJW6D,17,0,5,1.0,0,0,3,1,5,1.0,asocial
01JTNS7T84SCKGMTGACRJQJW6D,17,1,5,1.0,0,0,6,1,5,1.0,asocial
01JTNS7T84SCKGMTGACRJQJW6D,17,2,5,1.0,0,0,1,0,5,1.0,asocial
01JTNS7T84SCKGMTGACRJQJW6D,17,3,5,1.0,0,0,0,0,5,1.0,asocial
01JTNS7T84SCKGMTGACRJQJW6D,17,4,5,1.0,3,0,42,5,5,1.0,asocial
01JTNS7T84SCKGMTGACRJQJW6D,17,5,5,1.0,11,0,64,10,5,1.0,asocial
01JTNS7T84SCKGMTGACRJQJW6D,17,6,5,1.0,0,0,1,0,5,1.0,asocial
01JTNS7T84SCKGMTGACRJQJW6D,17,7,5,1.0,0,0,12,2,5,1.0,asocial
01JTNS7T84SCKGMTGACRJQJW6D,17,8,5,1.0,0,0,0,0,5,1.0,asocial
01JTNS7T84SCKGMTGACRJQJW6D,17,9,5,1.0,0,0,0,1,5,1.0,asocial
01JTNS7T84SCKGMTGACRJQJW6D,18,0,5,1.0,0,0,3,1,5,1.0,asocial
01JTNS7T84SCKGMTGACRJQJW6D,18,1,5,1.0,0,0,6,1,5,1.0,asocial
01JTNS7T84SCKGMTGACRJQJW6D,18,2,5,1.0,0,0,1,0,5,1.0,asocial
01JTNS7T84SCKGMTGACRJQJW6D,18,3,5,1.0,0,0,0,0,5,1.0,asocial
01JTNS7T84SCKGMTGACRJQJW6D,18,4,5,1.0,3,0,46,5,5,1.0,asocial
01JTNS7T84SCKGMTGACRJQJW6D,18,5,5,1.0,12,0,67,10,5,1.0,asocial
01JTNS7T84SCKGMTGACRJQJW6D,18,6,5,1.0,0,0,1,0,5,1.0,asocial
01JTNS7T84SCKGMTGACRJQJW6D,18,7,5,1.0,0,0,15,2,5,1.0,asocial
01JTNS7T84SCKGMTGACRJQJW6D,18,8,5,1.0,0,0,0,0,5,1.0,asocial
01JTNS7T84SCKGMTGACRJQJW6D,18,9,5,1.0,0,0,0,1,5,1.0,asocial
01JTNS7T84SCKGMTGACRJQJW6D,19,0,5,1.0,0,0,3,1,5,1.0,asocial
01JTNS7T84SCKGMTGACRJQJW6D,19,1,5,1.0,0,0,6,2,5,1.0,asocial
01JTNS7T84SCKGMTGACRJQJW6D,19,2,5,1.0,0,0,1,0,5,1.0,asocial
01JTNS7T84SCKGMTGACRJQJW6D,19,3,5,1.0,0,0,0,0,5,1.0,asocial
01JTNS7T84SCKGMTGACRJQJW6D,19,4,5,1.0,3,0,47,6,5,1.0,asocial
01JTNS7T84SCKGMTGACRJQJW6D,19,5,5,1.0,13,0,71,10,5,1.0,asocial
01JTNS7T84SCKGMTGACRJQJW6D,19,6,5,1.0,0,0,1,0,5,1.0,asocial
01JTNS7T84SCKGMTGACRJQJW6D,19,7,5,1.0,0,0,18,2,5,1.0,asocial
01JTNS7T84SCKGMTGACRJQJW6D,19,8,5,1.0,0,0,0,0,5,1.0,asocial
01JTNS7T84SCKGMTGACRJQJW6D,19,9,5,1.0,0,0,0,1,5,1.0,asocial
01JTNS7T84SCKGMTGACRJQJW6D,20,0,5,1.0,0,0,3,1,5,1.0,asocial
01JTNS7T84SCKGMTGACRJQJW6D,20,1,5,1.0,0,0,7,2,5,1.0,asocial
01JTNS7T84SCKGMTGACRJQJW6D,20,2,5,1.0,0,0,1,0,5,1.0,asocial
01JTNS7T84SCKGMTGACRJQJW6D,20,3,5,1.0,0,0,0,0,5,1.0,asocial
01JTNS7T84SCKGMTGACRJQJW6D,20,4,5,1.0,3,0,48,7,5,1.0,asocial
01JTNS7T84SCKGMTGACRJQJW6D,20,5,5,1.0,14,0,76,10,5,1.0,asocial
01JTNS7T84SCKGMTGACRJQJW6D,20,6,5,1.0,0,0,1,0,5,1.0,asocial
01JTNS7T84SCKGMTGACRJQJW6D,20,7,5,1.0,0,0,20,2,5,1.0,asocial
01JTNS7T84SCKGMTGACRJQJW6D,20,8,5,1.0,0,0,0,0,5,1.0,asocial
01JTNS7T84SCKGMTGACRJQJW6D,20,9,5,1.0,0,0,0,1,5,1.0,asocial
01JTNS7T84SCKGMTGACRJQJW6D,21,0,5,1.0,0,0,3,1,5,1.0,asocial
01JTNS7T84SCKGMTGACRJQJW6D,21,1,5,1.0,0,0,8,2,5,1.0,asocial
01JTNS7T84SCKGMTGACRJQJW6D,21,2,5,1.0,0,0,1,0,5,1.0,asocial
01JTNS7T84SCKGMTGACRJQJW6D,21,3,5,1.0,0,0,0,0,5,1.0,asocial
01JTNS7T84SCKGMTGACRJQJW6D,21,4,5,1.0,3,0,48,7,5,1.0,asocial
01JTNS7T84SCKGMTGACRJQJW6D,21,5,5,1.0,15,0,82,10,5,1.0,asocial
01JTNS7T84SCKGMTGACRJQJW6D,21,6,5,1.0,0,0,1,0,5,1.0,asocial
01JTNS7T84SCKGMTGACRJQJW6D,21,7,5,1.0,0,0,22,3,5,1.0,asocial
01JTNS7T84SCKGMTGACRJQJW6D,21,8,5,1.0,0,0,0,0,5,1.0,asocial
01JTNS7T84SCKGMTGACRJQJW6D,21,9,5,1.0,0,0,0,1,5,1.0,asocial
01JTNS7T84SCKGMTGACRJQJW6D,22,0,5,1.0,0,0,3,1,5,1.0,asocial
01JTNS7T84SCKGMTGACRJQJW6D,22,1,5,1.0,0,0,8,2,5,1.0,asocial
01JTNS7T84SCKGMTGACRJQJW6D,22,2,5,1.0,0,0,1,0,5,1.0,asocial
01JTNS7T84SCKGMTGACRJQJW6D,22,3,5,1.0,0,0,0,0,5,1.0,asocial
01JTNS7T84SCKGMTGACRJQJW6D,22,4,5,1.0,3,0,48,7,5,1.0,asocial
01JTNS7T84SCKGMTGACRJQJW6D,22,5,5,1.0,16,0,89,10,5,1.0,asocial
01JTNS7T84SCKGMTGACRJQJW6D,22,6,5,1.0,0,0,1,0,5,1.0,asocial
01JTNS7T84SCKGMTGACRJQJW6D,22,7,5,1.0,0,0,25,3,5,1.0,asocial
01JTNS7T84SCKGMTGACRJQJW6D,22,8,5,1.0,0,0,0,0,5,1.0,asocial
01JTNS7T84SCKGMTGACRJQJW6D,22,9,5,1.0,0,0,0,1,5,1.0,asocial
01JTNS7T84SCKGMTGACRJQJW6D,23,0,5,1.0,0,0,4,1,5,1.0,asocial
01JTNS7T84SCKGMTGACRJQJW6D,23,1,5,1.0,0,0,8,2,5,1.0,asocial
01JTNS7T84SCKGMTGACRJQJW6D,23,2,5,1.0,0,0,1,0,5,1.0,asocial
01JTNS7T84SCKGMTGACRJQJW6D,23,3,5,1.0,0,0,0,0,5,1.0,asocial
01JTNS7T84SCKGMTGACRJQJW6D,23,4,5,1.0,3,0,48,7,5,1.0,asocial
01JTNS7T84SCKGMTGACRJQJW6D,23,5,5,1.0,17,0,96,10,5,1.0,asocial
01JTNS7T84SCKGMTGACRJQJW6D,23,6,5,1.0,0,0,1,0,5,1.0,asocial
01JTNS7T84SCKGMTGACRJQJW6D,23,7,5,1.0,0,0,27,3,5,1.0,asocial
01JTNS7T84SCKGMTGACRJQJW6D,23,8,5,1.0,0,0,0,0,5,1.0,asocial
01JTNS7T84SCKGMTGACRJQJW6D,23,9,5,1.0,0,0,0,1,5,1.0,asocial
01JTNS7T84SCKGMTGACRJQJW6D,24,0,5,1.0,0,0,5,1,5,1.0,asocial
01JTNS7T84SCKGMTGACRJQJW6D,24,1,5,1.0,0,0,8,2,5,1.0,asocial
01JTNS7T84SCKGMTGACRJQJW6D,24,2,5,1.0,0,0,1,0,5,1.0,asocial
01JTNS7T84SCKGMTGACRJQJW6D,24,3,5,1.0,0,0,0,0,5,1.0,asocial
01JTNS7T84SCKGMTGACRJQJW6D,24,4,5,1.0,3,0,48,7,5,1.0,asocial
01JTNS7T84SCKGMTGACRJQJW6D,24,5,5,1.0,18,0,100,12,5,1.0,asocial
01JTNS7T84SCKGMTGACRJQJW6D,24,6,5,1.0,0,0,1,0,5,1.0,asocial
01JTNS7T84SCKGMTGACRJQJW6D,24,7,5,1.0,0,0,30,3,5,1.0,asocial
01JTNS7T84SCKGMTGACRJQJW6D,24,8,5,1.0,0,0,0,0,5,1.0,asocial
01JTNS7T84SCKGMTGACRJQJW6D,24,9,5,1.0,0,0,0,1,5,1.0,asocial
01JTNS7T84SCKGMTGACRJQJW6D,25,0,5,1.0,0,0,6,1,5,1.0,asocial
01JTNS7T84SCKGMTGACRJQJW6D,25,1,5,1.0,0,0,9,2,5,1.0,asocial
01JTNS7T84SCKGMTGACRJQJW6D,25,2,5,1.0,0,0,1,0,5,1.0,asocial
01JTNS7T84SCKGMTGACRJQJW6D,25,3,5,1.0,0,0,0,0,5,1.0,asocial
01JTNS7T84SCKGMTGACRJQJW6D,25,4,5,1.0,3,0,48,7,5,1.0,asocial
01JTNS7T84SCKGMTGACRJQJW6D,25,5,5,1.0,19,0,104,13,5,1.0,asocial
01JTNS7T84SCKGMTGACRJQJW6D,25,6,5,1.0,0,0,1,0,5,1.0,asocial
01JTNS7T84SCKGMTGACRJQJW6D,25,7,5,1.0,0,0,32,4,5,1.0,asocial
01JTNS7T84SCKGMTGACRJQJW6D,25,8,5,1.0,0,0,0,0,5,1.0,asocial
01JTNS7T84SCKGMTGACRJQJW6D,25,9,5,1.0,0,0,0,1,5,1.0,asocial
01JTNS7T84SCKGMTGACRJQJW6D,26,0,5,1.0,0,0,7,1,5,1.0,asocial
01JTNS7T84SCKGMTGACRJQJW6D,26,1,5,1.0,0,0,9,2,5,1.0,asocial
01JTNS7T84SCKGMTGACRJQJW6D,26,2,5,1.0,0,0,1,0,5,1.0,asocial
01JTNS7T84SCKGMTGACRJQJW6D,26,3,5,1.0,0,0,0,0,5,1.0,asocial
01JTNS7T84SCKGMTGACRJQJW6D,26,4,5,1.0,3,0,48,7,5,1.0,asocial
01JTNS7T84SCKGMTGACRJQJW6D,26,5,5,1.0,20,0,110,13,5,1.0,asocial
01JTNS7T84SCKGMTGACRJQJW6D,26,6,5,1.0,0,0,1,0,5,1.0,asocial
01JTNS7T84SCKGMTGACRJQJW6D,26,7,5,1.0,0,0,35,4,5,1.0,asocial
01JTNS7T84SCKGMTGACRJQJW6D,26,8,5,1.0,0,0,0,0,5,1.0,asocial
01JTNS7T84SCKGMTGACRJQJW6D,26,9,5,1.0,0,0,0,1,5,1.0,asocial
01JTNS7T84SCKGMTGACRJQJW6D,27,0,5,1.0,0,0,8,1,5,1.0,asocial
01JTNS7T84SCKGMTGACRJQJW6D,27,1,5,1.0,0,0,10,2,5,1.0,asocial
01JTNS7T84SCKGMTGACRJQJW6D,27,2,5,1.0,0,0,1,0,5,1.0,asocial
01JTNS7T84SCKGMTGACRJQJW6D,27,3,5,1.0,0,0,0,0,5,1.0,asocial
01JTNS7T84SCKGMTGACRJQJW6D,27,4,5,1.0,3,0,49,7,5,1.0,asocial
01JTNS7T84SCKGMTGACRJQJW6D,27,5,5,1.0,21,0,114,13,5,1.0,asocial
01JTNS7T84SCKGMTGACRJQJW6D,27,6,5,1.0,0,0,1,0,5,1.0,asocial
01JTNS7T84SCKGMTGACRJQJW6D,27,7,5,1.0,0,0,38,4,5,1.0,asocial
01JTNS7T84SCKGMTGACRJQJW6D,27,8,5,1.0,0,0,0,0,5,1.0,asocial
01JTNS7T84SCKGMTGACRJQJW6D,27,9,5,1.0,0,0,0,1,5,1.0,asocial
01JTNS7T84SCKGMTGACRJQJW6D,28,0,5,1.0,0,0,10,1,5,1.0,asocial
01JTNS7T84SCKGMTGACRJQJW6D,28,1,5,1.0,0,0,10,2,5,1.0,asocial
01JTNS7T84SCKGMTGACRJQJW6D,28,2,5,1.0,0,0,1,0,5,1.0,asocial
01JTNS7T84SCKGMTGACRJQJW6D,28,3,5,1.0,0,0,0,0,5,1.0,asocial
01JTNS7T84SCKGMTGACRJQJW6D,28,4,5,1.0,3,0,50,7,5,1.0,asocial
01JTNS7T84SCKGMTGACRJQJW6D,28,5,5,1.0,22,0,118,13,5,1.0,asocial
01JTNS7T84SCKGMTGACRJQJW6D,28,6,5,1.0,0,0,1,0,5,1.0,asocial
01JTNS7T84SCKGMTGACRJQJW6D,28,7,5,1.0,0,0,41,4,5,1.0,asocial
01JTNS7T84SCKGMTGACRJQJW6D,28,8,5,1.0,0,0,0,0,5,1.0,asocial
01JTNS7T84SCKGMTGACRJQJW6D,28,9,5,1.0,0,0,0,1,5,1.0,asocial
01JTNS7T84SCKGMTGACRJQJW6D,29,0,5,1.0,0,0,10,1,5,1.0,asocial
01JTNS7T84SCKGMTGACRJQJW6D,29,1,5,1.0,0,0,11,2,5,1.0,asocial
01JTNS7T84SCKGMTGACRJQJW6D,29,2,5,1.0,0,0,1,0,5,1.0,asocial
01JTNS7T84SCKGMTGACRJQJW6D,29,3,5,1.0,0,0,0,0,5,1.0,asocial
01JTNS7T84SCKGMTGACRJQJW6D,29,4,5,1.0,3,0,50,7,5,1.0,asocial
01JTNS7T84SCKGMTGACRJQJW6D,29,5,5,1.0,23,0,121,13,5,1.0,asocial
01JTNS7T84SCKGMTGACRJQJW6D,29,6,5,1.0,0,0,2,0,5,1.0,asocial
01JTNS7T84SCKGMTGACRJQJW6D,29,7,5,1.0,0,0,46,4,5,1.0,asocial
01JTNS7T84SCKGMTGACRJQJW6D,29,8,5,1.0,0,0,0,0,5,1.0,asocial
01JTNS7T84SCKGMTGACRJQJW6D,29,9,5,1.0,0,0,0,1,5,1.0,asocial
01JTNS7T84SCKGMTGACRJQJW6D,30,0,5,0.0,0,0,10,1,5,1.0,asocial
01JTNS7T84SCKGMTGACRJQJW6D,30,1,5,0.0,0,0,11,2,5,1.0,asocial
01JTNS7T84SCKGMTGACRJQJW6D,30,2,5,0.0,0,0,1,0,5,1.0,asocial
01JTNS7T84SCKGMTGACRJQJW6D,30,3,5,0.0,0,0,0,0,5,1.0,asocial
01JTNS7T84SCKGMTGACRJQJW6D,30,4,5,0.0,3,0,51,7,5,1.0,asocial
01JTNS7T84SCKGMTGACRJQJW6D,30,5,5,0.0,24,0,127,13,5,1.0,asocial
01JTNS7T84SCKGMTGACRJQJW6D,30,6,5,0.0,0,0,2,0,5,1.0,asocial
01JTNS7T84SCKGMTGACRJQJW6D,30,7,5,0.0,0,0,49,4,5,1.0,asocial
01JTNS7T84SCKGMTGACRJQJW6D,30,8,5,0.0,0,0,0,0,5,1.0,asocial
01JTNS7T84SCKGMTGACRJQJW6D,30,9,5,0.0,0,0,0,1,5,1.0,asocial
01JTNS7T84SCKGMTGACRJQJW6D,31,0,5,1.0,0,0,11,1,5,0.0,asocial
01JTNS7T84SCKGMTGACRJQJW6D,31,1,5,1.0,0,0,12,2,5,0.0,asocial
01JTNS7T84SCKGMTGACRJQJW6D,31,2,5,1.0,0,0,1,0,5,0.0,asocial
01JTNS7T84SCKGMTGACRJQJW6D,31,3,5,1.0,0,0,0,0,5,0.0,asocial
01JTNS7T84SCKGMTGACRJQJW6D,31,4,5,1.0,3,0,51,7,5,0.0,asocial
01JTNS7T84SCKGMTGACRJQJW6D,31,5,5,1.0,24,1,130,14,5,0.0,asocial
01JTNS7T84SCKGMTGACRJQJW6D,31,6,5,1.0,0,0,2,0,5,0.0,asocial
01JTNS7T84SCKGMTGACRJQJW6D,31,7,5,1.0,0,0,53,4,5,0.0,asocial
01JTNS7T84SCKGMTGACRJQJW6D,31,8,5,1.0,0,0,0,0,5,0.0,asocial
01JTNS7T84SCKGMTGACRJQJW6D,31,9,5,1.0,0,0,0,1,5,0.0,asocial
01JTNS7T84SCKGMTGACRJQJW6D,32,0,5,1.0,0,0,11,1,5,1.0,asocial
01JTNS7T84SCKGMTGACRJQJW6D,32,1,5,1.0,0,0,13,2,5,1.0,asocial
01JTNS7T84SCKGMTGACRJQJW6D,32,2,5,1.0,0,0,1,0,5,1.0,asocial
01JTNS7T84SCKGMTGACRJQJW6D,32,3,5,1.0,0,0,0,0,5,1.0,asocial
01JTNS7T84SCKGMTGACRJQJW6D,32,4,5,1.0,3,0,52,7,5,1.0,asocial
01JTNS7T84SCKGMTGACRJQJW6D,32,5,5,1.0,25,1,135,14,5,1.0,asocial
01JTNS7T84SCKGMTGACRJQJW6D,32,6,5,1.0,0,0,2,0,5,1.0,asocial
01JTNS7T84SCKGMTGACRJQJW6D,32,7,5,1.0,0,0,55,5,5,1.0,asocial
01JTNS7T84SCKGMTGACRJQJW6D,32,8,5,1.0,0,0,0,0,5,1.0,asocial
01JTNS7T84SCKGMTGACRJQJW6D,32,9,5,1.0,0,0,0,1,5,1.0,asocial
01JTNS7T84SCKGMTGACRJQJW6D,33,0,5,1.0,0,0,11,1,5,1.0,asocial
01JTNS7T84SCKGMTGACRJQJW6D,33,1,5,1.0,0,0,14,2,5,1.0,asocial
01JTNS7T84SCKGMTGACRJQJW6D,33,2,5,1.0,0,0,1,0,5,1.0,asocial
01JTNS7T84SCKGMTGACRJQJW6D,33,3,5,1.0,0,0,0,0,5,1.0,asocial
01JTNS7T84SCKGMTGACRJQJW6D,33,4,5,1.0,3,0,52,7,5,1.0,asocial
01JTNS7T84SCKGMTGACRJQJW6D,33,5,5,1.0,26,1,140,14,5,1.0,asocial
01JTNS7T84SCKGMTGACRJQJW6D,33,6,5,1.0,0,0,3,0,5,1.0,asocial
01JTNS7T84SCKGMTGACRJQJW6D,33,7,5,1.0,0,0,58,5,5,1.0,asocial
01JTNS7T84SCKGMTGACRJQJW6D,33,8,5,1.0,0,0,0,0,5,1.0,asocial
01JTNS7T84SCKGMTGACRJQJW6D,33,9,5,1.0,0,0,0,1,5,1.0,asocial
01JTNS7T84SCKGMTGACRJQJW6D,34,0,5,1.0,0,0,12,1,5,1.0,asocial
01JTNS7T84SCKGMTGACRJQJW6D,34,1,5,1.0,0,0,14,2,5,1.0,asocial
01JTNS7T84SCKGMTGACRJQJW6D,34,2,5,1.0,0,0,1,0,5,1.0,asocial
01JTNS7T84SCKGMTGACRJQJW6D,34,3,5,1.0,0,0,0,0,5,1.0,asocial
01JTNS7T84SCKGMTGACRJQJW6D,34,4,5,1.0,3,0,52,7,5,1.0,asocial
01JTNS7T84SCKGMTGACRJQJW6D,34,5,5,1.0,27,1,145,14,5,1.0,asocial
01JTNS7T84SCKGMTGACRJQJW6D,34,6,5,1.0,0,0,4,0,5,1.0,asocial
01JTNS7T84SCKGMTGACRJQJW6D,34,7,5,1.0,0,0,60,6,5,1.0,asocial
01JTNS7T84SCKGMTGACRJQJW6D,34,8,5,1.0,0,0,0,0,5,1.0,asocial
01JTNS7T84SCKGMTGACRJQJW6D,34,9,5,1.0,0,0,0,1,5,1.0,asocial
01JTNS7T84SCKGMTGACRJQJW6D,35,0,5,1.0,0,0,12,1,5,1.0,asocial
01JTNS7T84SCKGMTGACRJQJW6D,35,1,5,1.0,0,0,14,2,5,1.0,asocial
01JTNS7T84SCKGMTGACRJQJW6D,35,2,5,1.0,0,0,1,0,5,1.0,asocial
01JTNS7T84SCKGMTGACRJQJW6D,35,3,5,1.0,0,0,0,0,5,1.0,asocial
01JTNS7T84SCKGMTGACRJQJW6D,35,4,5,1.0,3,0,53,7,5,1.0,asocial
01JTNS7T84SCKGMTGACRJQJW6D,35,5,5,1.0,28,1,149,14,5,1.0,asocial
01JTNS7T84SCKGMTGACRJQJW6D,35,6,5,1.0,0,0,6,0,5,1.0,asocial
01JTNS7T84SCKGMTGACRJQJW6D,35,7,5,1.0,0,0,63,6,5,1.0,asocial
01JTNS7T84SCKGMTGACRJQJW6D,35,8,5,1.0,0,0,0,0,5,1.0,asocial
01JTNS7T84SCKGMTGACRJQJW6D,35,9,5,1.0,0,0,0,1,5,1.0,asocial
01JTNS7T84SCKGMTGACRJQJW6D,36,0,5,1.0,0,0,12,1,5,1.0,asocial
01JTNS7T84SCKGMTGACRJQJW6D,36,1,5,1.0,0,0,14,2,5,1.0,asocial
01JTNS7T84SCKGMTGACRJQJW6D,36,2,5,1.0,0,0,1,0,5,1.0,asocial
01JTNS7T84SCKGMTGACRJQJW6D,36,3,5,1.0,0,0,0,0,5,1.0,asocial
01JTNS7T84SCKGMTGACRJQJW6D,36,4,5,1.0,3,0,53,7,5,1.0,asocial
01JTNS7T84SCKGMTGACRJQJW6D,36,5,5,1.0,29,1,155,15,5,1.0,asocial
01JTNS7T84SCKGMTGACRJQJW6D,36,6,5,1.0,0,0,8,0,5,1.0,asocial
01JTNS7T84SCKGMTGACRJQJW6D,36,7,5,1.0,0,0,64,6,5,1.0,asocial
01JTNS7T84SCKGMTGACRJQJW6D,36,8,5,1.0,0,0,0,0,5,1.0,asocial
01JTNS7T84SCKGMTGACRJQJW6D,36,9,5,1.0,0,0,0,1,5,1.0,asocial
01JTNS7T84SCKGMTGACRJQJW6D,37,0,5,1.0,0,0,12,1,5,1.0,asocial
01JTNS7T84SCKGMTGACRJQJW6D,37,1,5,1.0,0,0,14,2,5,1.0,asocial
01JTNS7T84SCKGMTGACRJQJW6D,37,2,5,1.0,0,0,1,0,5,1.0,asocial
01JTNS7T84SCKGMTGACRJQJW6D,37,3,5,1.0,0,0,0,0,5,1.0,asocial
01JTNS7T84SCKGMTGACRJQJW6D,37,4,5,1.0,3,0,53,7,5,1.0,asocial
01JTNS7T84SCKGMTGACRJQJW6D,37,5,5,1.0,30,1,159,15,5,1.0,asocial
01JTNS7T84SCKGMTGACRJQJW6D,37,6,5,1.0,0,0,11,1,5,1.0,asocial
01JTNS7T84SCKGMTGACRJQJW6D,37,7,5,1.0,0,0,66,6,5,1.0,asocial
01JTNS7T84SCKGMTGACRJQJW6D,37,8,5,1.0,0,0,0,0,5,1.0,asocial
01JTNS7T84SCKGMTGACRJQJW6D,37,9,5,1.0,0,0,0,1,5,1.0,asocial
01JTNS7T84SCKGMTGACRJQJW6D,38,0,5,1.0,0,0,12,1,5,1.0,asocial
01JTNS7T84SCKGMTGACRJQJW6D,38,1,5,1.0,0,0,14,2,5,1.0,asocial
01JTNS7T84SCKGMTGACRJQJW6D,38,2,5,1.0,0,0,2,0,5,1.0,asocial
01JTNS7T84SCKGMTGACRJQJW6D,38,3,5,1.0,0,0,0,0,5,1.0,asocial
01JTNS7T84SCKGMTGACRJQJW6D,38,4,5,1.0,3,0,53,7,5,1.0,asocial
01JTNS7T84SCKGMTGACRJQJW6D,38,5,5,1.0,31,1,165,15,5,1.0,asocial
01JTNS7T84SCKGMTGACRJQJW6D,38,6,5,1.0,0,0,13,1,5,1.0,asocial
01JTNS7T84SCKGMTGACRJQJW6D,38,7,5,1.0,0,0,67,6,5,1.0,asocial
01JTNS7T84SCKGMTGACRJQJW6D,38,8,5,1.0,0,0,0,0,5,1.0,asocial
01JTNS7T84SCKGMTGACRJQJW6D,38,9,5,1.0,0,0,0,1,5,1.0,asocial
01JTNS7T84SCKGMTGACRJQJW6D,39,0,5,1.0,0,0,12,1,5,1.0,asocial
01JTNS7T84SCKGMTGACRJQJW6D,39,1,5,1.0,0,0,14,2,5,1.0,asocial
01JTNS7T84SCKGMTGACRJQJW6D,39,2,5,1.0,0,0,2,0,5,1.0,asocial
01JTNS7T84SCKGMTGACRJQJW6D,39,3,5,1.0,0,0,0,0,5,1.0,asocial
01JTNS7T84SCKGMTGACRJQJW6D,39,4,5,1.0,3,0,53,7,5,1.0,asocial
01JTNS7T84SCKGMTGACRJQJW6D,39,5,5,1.0,32,1,172,15,5,1.0,asocial
01JTNS7T84SCKGMTGACRJQJW6D,39,6,5,1.0,0,0,15,1,5,1.0,asocial
01JTNS7T84SCKGMTGACRJQJW6D,39,7,5,1.0,0,0,68,6,5,1.0,asocial
01JTNS7T84SCKGMTGACRJQJW6D,39,8,5,1.0,0,0,0,0,5,1.0,asocial
01JTNS7T84SCKGMTGACRJQJW6D,39,9,5,1.0,0,0,0,1,5,1.0,asocial
01JTNS7T84SCKGMTGACRJQJW6D,40,0,5,1.0,0,0,12,1,5,1.0,asocial
01JTNS7T84SCKGMTGACRJQJW6D,40,1,5,1.0,0,0,14,2,5,1.0,asocial
01JTNS7T84SCKGMTGACRJQJW6D,40,2,5,1.0,0,0,2,0,5,1.0,asocial
01JTNS7T84SCKGMTGACRJQJW6D,40,3,5,1.0,0,0,0,0,5,1.0,asocial
01JTNS7T84SCKGMTGACRJQJW6D,40,4,5,1.0,3,0,53,7,5,1.0,asocial
01JTNS7T84SCKGMTGACRJQJW6D,40,5,5,1.0,33,1,177,16,5,1.0,asocial
01JTNS7T84SCKGMTGACRJQJW6D,40,6,5,1.0,0,0,18,1,5,1.0,asocial
01JTNS7T84SCKGMTGACRJQJW6D,40,7,5,1.0,0,0,69,6,5,1.0,asocial
01JTNS7T84SCKGMTGACRJQJW6D,40,8,5,1.0,0,0,0,0,5,1.0,asocial
01JTNS7T84SCKGMTGACRJQJW6D,40,9,5,1.0,0,0,0,1,5,1.0,asocial
01JTNS7T84SCKGMTGACRJQJW6D,41,0,5,1.0,0,0,12,1,5,1.0,asocial
01JTNS7T84SCKGMTGACRJQJW6D,41,1,5,1.0,0,0,14,2,5,1.0,asocial
01JTNS7T84SCKGMTGACRJQJW6D,41,2,5,1.0,0,0,3,0,5,1.0,asocial
01JTNS7T84SCKGMTGACRJQJW6D,41,3,5,1.0,0,0,0,0,5,1.0,asocial
01JTNS7T84SCKGMTGACRJQJW6D,41,4,5,1.0,3,0,53,7,5,1.0,asocial
01JTNS7T84SCKGMTGACRJQJW6D,41,5,5,1.0,34,1,184,16,5,1.0,asocial
01JTNS7T84SCKGMTGACRJQJW6D,41,6,5,1.0,0,0,19,1,5,1.0,asocial
01JTNS7T84SCKGMTGACRJQJW6D,41,7,5,1.0,0,0,70,6,5,1.0,asocial
01JTNS7T84SCKGMTGACRJQJW6D,41,8,5,1.0,0,0,0,0,5,1.0,asocial
01JTNS7T84SCKGMTGACRJQJW6D,41,9,5,1.0,0,0,0,1,5,1.0,asocial
01JTNS7T84SCKGMTGACRJQJW6D,42,0,5,1.0,0,0,12,1,5,1.0,asocial
01JTNS7T84SCKGMTGACRJQJW6D,42,1,5,1.0,0,0,14,2,5,1.0,asocial
01JTNS7T84SCKGMTGACRJQJW6D,42,2,5,1.0,0,0,3,0,5,1.0,asocial
01JTNS7T84SCKGMTGACRJQJW6D,42,3,5,1.0,0,0,0,0,5,1.0,asocial
01JTNS7T84SCKGMTGACRJQJW6D,42,4,5,1.0,3,0,53,7,5,1.0,asocial
01JTNS7T84SCKGMTGACRJQJW6D,42,5,5,1.0,35,1,192,16,5,1.0,asocial
01JTNS7T84SCKGMTGACRJQJW6D,42,6,5,1.0,0,0,19,1,5,1.0,asocial
01JTNS7T84SCKGMTGACRJQJW6D,42,7,5,1.0,0,0,72,6,5,1.0,asocial
01JTNS7T84SCKGMTGACRJQJW6D,42,8,5,1.0,0,0,0,0,5,1.0,asocial
01JTNS7T84SCKGMTGACRJQJW6D,42,9,5,1.0,0,0,0,1,5,1.0,asocial
01JTNS7T84SCKGMTGACRJQJW6D,43,0,5,1.0,0,0,12,1,5,1.0,asocial
01JTNS7T84SCKGMTGACRJQJW6D,43,1,5,1.0,0,0,14,2,5,1.0,asocial
01JTNS7T84SCKGMTGACRJQJW6D,43,2,5,1.0,0,0,3,0,5,1.0,asocial
01JTNS7T84SCKGMTGACRJQJW6D,43,3,5,1.0,0,0,0,0,5,1.0,asocial
01JTNS7T84SCKGMTGACRJQJW6D,43,4,5,1.0,3,0,53,7,5,1.0,asocial
01JTNS7T84SCKGMTGACRJQJW6D,43,5,5,1.0,36,1,197,18,5,1.0,asocial
01JTNS7T84SCKGMTGACRJQJW6D,43,6,5,1.0,0,0,20,1,5,1.0,asocial
01JTNS7T84SCKGMTGACRJQJW6D,43,7,5,1.0,0,0,73,6,5,1.0,asocial
01JTNS7T84SCKGMTGACRJQJW6D,43,8,5,1.0,0,0,1,0,5,1.0,asocial
01JTNS7T84SCKGMTGACRJQJW6D,43,9,5,1.0,0,0,0,1,5,1.0,asocial
01JTNS7T84SCKGMTGACRJQJW6D,44,0,5,0.0,0,0,13,1,5,1.0,asocial
01JTNS7T84SCKGMTGACRJQJW6D,44,1,5,0.0,0,0,14,2,5,1.0,asocial
01JTNS7T84SCKGMTGACRJQJW6D,44,2,5,0.0,0,0,3,0,5,1.0,asocial
01JTNS7T84SCKGMTGACRJQJW6D,44,3,5,0.0,0,0,0,0,5,1.0,asocial
01JTNS7T84SCKGMTGACRJQJW6D,44,4,5,0.0,3,0,53,7,5,1.0,asocial
01JTNS7T84SCKGMTGACRJQJW6D,44,5,5,0.0,37,1,203,19,5,1.0,asocial
01JTNS7T84SCKGMTGACRJQJW6D,44,6,5,0.0,0,0,20,1,5,1.0,asocial
01JTNS7T84SCKGMTGACRJQJW6D,44,7,5,0.0,0,0,74,6,5,1.0,asocial
01JTNS7T84SCKGMTGACRJQJW6D,44,8,5,0.0,0,0,2,0,5,1.0,asocial
01JTNS7T84SCKGMTGACRJQJW6D,44,9,5,0.0,0,0,0,1,5,1.0,asocial
01JTNS7T84SCKGMTGACRJQJW6D,45,0,5,0.0,0,0,13,1,5,0.0,asocial
01JTNS7T84SCKGMTGACRJQJW6D,45,1,5,0.0,0,0,14,2,5,0.0,asocial
01JTNS7T84SCKGMTGACRJQJW6D,45,2,5,0.0,0,0,3,0,5,0.0,asocial
01JTNS7T84SCKGMTGACRJQJW6D,45,3,5,0.0,0,0,0,0,5,0.0,asocial
01JTNS7T84SCKGMTGACRJQJW6D,45,4,5,0.0,3,0,53,7,5,0.0,asocial
01JTNS7T84SCKGMTGACRJQJW6D,45,5,5,0.0,37,2,206,22,5,0.0,asocial
01JTNS7T84SCKGMTGACRJQJW6D,45,6,5,0.0,0,0,21,1,5,0.0,asocial
01JTNS7T84SCKGMTGACRJQJW6D,45,7,5,0.0,0,0,76,6,5,0.0,asocial
01JTNS7T84SCKGMTGACRJQJW6D,45,8,5,0.0,0,0,3,0,5,0.0,asocial
01JTNS7T84SCKGMTGACRJQJW6D,45,9,5,0.0,0,0,0,1,5,0.0,asocial
01JTNS7T84SCKGMTGACRJQJW6D,46,0,5,1.0,0,0,13,1,5,0.0,asocial
01JTNS7T84SCKGMTGACRJQJW6D,46,1,5,1.0,0,0,14,2,5,0.0,asocial
01JTNS7T84SCKGMTGACRJQJW6D,46,2,5,1.0,0,0,3,0,5,0.0,asocial
01JTNS7T84SCKGMTGACRJQJW6D,46,3,5,1.0,0,0,0,0,5,0.0,asocial
01JTNS7T84SCKGMTGACRJQJW6D,46,4,5,1.0,3,0,54,7,5,0.0,asocial
01JTNS7T84SCKGMTGACRJQJW6D,46,5,5,1.0,37,3,209,23,5,0.0,asocial
01JTNS7T84SCKGMTGACRJQJW6D,46,6,5,1.0,0,0,21,1,5,0.0,asocial
01JTNS7T84SCKGMTGACRJQJW6D,46,7,5,1.0,0,0,80,6,5,0.0,asocial
01JTNS7T84SCKGMTGACRJQJW6D,46,8,5,1.0,0,0,4,0,5,0.0,asocial
01JTNS7T84SCKGMTGACRJQJW6D,46,9,5,1.0,0,0,0,1,5,0.0,asocial
01JTNS7T84SCKGMTGACRJQJW6D,47,0,5,1.0,0,0,13,1,5,1.0,asocial
01JTNS7T84SCKGMTGACRJQJW6D,47,1,5,1.0,0,0,14,2,5,1.0,asocial
01JTNS7T84SCKGMTGACRJQJW6D,47,2,5,1.0,0,0,3,0,5,1.0,asocial
01JTNS7T84SCKGMTGACRJQJW6D,47,3,5,1.0,0,0,0,0,5,1.0,asocial
01JTNS7T84SCKGMTGACRJQJW6D,47,4,5,1.0,3,0,54,7,5,1.0,asocial
01JTNS7T84SCKGMTGACRJQJW6D,47,5,5,1.0,38,3,214,23,5,1.0,asocial
01JTNS7T84SCKGMTGACRJQJW6D,47,6,5,1.0,0,0,22,1,5,1.0,asocial
01JTNS7T84SCKGMTGACRJQJW6D,47,7,5,1.0,0,0,83,6,5,1.0,asocial
01JTNS7T84SCKGMTGACRJQJW6D,47,8,5,1.0,0,0,5,0,5,1.0,asocial
01JTNS7T84SCKGMTGACRJQJW6D,47,9,5,1.0,0,0,0,1,5,1.0,asocial
01JTNS7T84SCKGMTGACRJQJW6D,48,0,5,1.0,0,0,13,1,5,1.0,asocial
01JTNS7T84SCKGMTGACRJQJW6D,48,1,5,1.0,0,0,14,2,5,1.0,asocial
01JTNS7T84SCKGMTGACRJQJW6D,48,2,5,1.0,0,0,4,0,5,1.0,asocial
01JTNS7T84SCKGMTGACRJQJW6D,48,3,5,1.0,0,0,0,0,5,1.0,asocial
01JTNS7T84SCKGMTGACRJQJW6D,48,4,5,1.0,3,0,54,7,5,1.0,asocial
01JTNS7T84SCKGMTGACRJQJW6D,48,5,5,1.0,39,3,219,23,5,1.0,asocial
01JTNS7T84SCKGMTGACRJQJW6D,48,6,5,1.0,0,0,22,1,5,1.0,asocial
01JTNS7T84SCKGMTGACRJQJW6D,48,7,5,1.0,0,0,86,7,5,1.0,asocial
01JTNS7T84SCKGMTGACRJQJW6D,48,8,5,1.0,0,0,5,0,5,1.0,asocial
01JTNS7T84SCKGMTGACRJQJW6D,48,9,5,1.0,0,0,0,1,5,1.0,asocial
01JTNS7T84SCKGMTGACRJQJW6D,49,0,5,1.0,0,0,13,1,5,1.0,asocial
01JTNS7T84SCKGMTGACRJQJW6D,49,1,5,1.0,0,0,14,2,5,1.0,asocial
01JTNS7T84SCKGMTGACRJQJW6D,49,2,5,1.0,0,0,4,0,5,1.0,asocial
01JTNS7T84SCKGMTGACRJQJW6D,49,3,5,1.0,0,0,1,0,5,1.0,asocial
01JTNS7T84SCKGMTGACRJQJW6D,49,4,5,1.0,3,0,54,7,5,1.0,asocial
01JTNS7T84SCKGMTGACRJQJW6D,49,5,5,1.0,40,3,224,23,5,1.0,asocial
01JTNS7T84SCKGMTGACRJQJW6D,49,6,5,1.0,0,0,23,2,5,1.0,asocial
01JTNS7T84SCKGMTGACRJQJW6D,49,7,5,1.0,0,0,88,7,5,1.0,asocial
01JTNS7T84SCKGMTGACRJQJW6D,49,8,5,1.0,0,0,5,0,5,1.0,asocial
01JTNS7T84SCKGMTGACRJQJW6D,49,9,5,1.0,0,0,0,1,5,1.0,asocial
01JTNS7T84SCKGMTGACRJQJW6D,50,0,5,1.0,0,0,13,1,5,1.0,asocial
01JTNS7T84SCKGMTGACRJQJW6D,50,1,5,1.0,0,0,14,2,5,1.0,asocial
01JTNS7T84SCKGMTGACRJQJW6D,50,2,5,1.0,0,0,4,0,5,1.0,asocial
01JTNS7T84SCKGMTGACRJQJW6D,50,3,5,1.0,0,0,2,0,5,1.0,asocial
01JTNS7T84SCKGMTGACRJQJW6D,50,4,5,1.0,3,0,54,7,5,1.0,asocial
01JTNS7T84SCKGMTGACRJQJW6D,50,5,5,1.0,41,3,228,24,5,1.0,asocial
01JTNS7T84SCKGMTGACRJQJW6D,50,6,5,1.0,0,0,24,2,5,1.0,asocial
01JTNS7T84SCKGMTGACRJQJW6D,50,7,5,1.0,0,0,91,7,5,1.0,asocial
01JTNS7T84SCKGMTGACRJQJW6D,50,8,5,1.0,0,0,5,0,5,1.0,asocial
01JTNS7T84SCKGMTGACRJQJW6D,50,9,5,1.0,0,0,0,1,5,1.0,asocial
01JTNS7T84SCKGMTGACRJQJW6D,51,0,5,0.0,0,0,13,1,5,1.0,asocial
01JTNS7T84SCKGMTGACRJQJW6D,51,1,5,0.0,0,0,14,2,5,1.0,asocial
01JTNS7T84SCKGMTGACRJQJW6D,51,2,5,0.0,0,0,4,0,5,1.0,asocial
01JTNS7T84SCKGMTGACRJQJW6D,51,3,5,0.0,0,0,2,0,5,1.0,asocial
01JTNS7T84SCKGMTGACRJQJW6D,51,4,5,0.0,3,0,54,7,5,1.0,asocial
01JTNS7T84SCKGMTGACRJQJW6D,51,5,5,0.0,42,3,233,24,5,1.0,asocial
01JTNS7T84SCKGMTGACRJQJW6D,51,6,5,0.0,0,0,24,2,5,1.0,asocial
01JTNS7T84SCKGMTGACRJQJW6D,51,7,5,0.0,0,0,93,9,5,1.0,asocial
01JTNS7T84SCKGMTGACRJQJW6D,51,8,5,0.0,0,0,5,0,5,1.0,asocial
01JTNS7T84SCKGMTGACRJQJW6D,51,9,5,0.0,0,0,1,1,5,1.0,asocial
01JTNS7W3P8TCBQE14F22MEHNH,2,0,0,1.0,0,0,1,0,-1,,asocial
01JTNS7W3P8TCBQE14F22MEHNH,2,1,0,1.0,0,0,1,0,-1,,asocial
01JTNS7W3P8TCBQE14F22MEHNH,2,2,0,1.0,0,0,1,0,-1,,asocial
01JTNS7W3P8TCBQE14F22MEHNH,2,3,0,1.0,0,0,0,0,-1,,asocial
01JTNS7W3P8TCBQE14F22MEHNH,2,4,0,1.0,0,0,1,0,-1,,asocial
01JTNS7W3P8TCBQE14F22MEHNH,2,5,0,1.0,0,0,1,0,-1,,asocial
01JTNS7W3P8TCBQE14F22MEHNH,2,6,0,1.0,0,0,1,0,-1,,asocial
01JTNS7W3P8TCBQE14F22MEHNH,2,7,0,1.0,0,0,1,0,-1,,asocial
01JTNS7W3P8TCBQE14F22MEHNH,2,8,0,1.0,0,0,0,0,-1,,asocial
01JTNS7W3P8TCBQE14F22MEHNH,2,9,0,1.0,0,0,0,1,-1,,asocial
01JTNS7W3P8TCBQE14F22MEHNH,3,0,5,1.0,1,0,2,0,0,1.0,asocial
01JTNS7W3P8TCBQE14F22MEHNH,3,1,5,1.0,0,0,2,1,0,1.0,asocial
01JTNS7W3P8TCBQE14F22MEHNH,3,2,5,1.0,0,0,1,0,0,1.0,asocial
01JTNS7W3P8TCBQE14F22MEHNH,3,3,5,1.0,0,0,0,0,0,1.0,asocial
01JTNS7W3P8TCBQE14F22MEHNH,3,4,5,1.0,0,0,2,0,0,1.0,asocial
01JTNS7W3P8TCBQE14F22MEHNH,3,5,5,1.0,0,0,4,0,0,1.0,asocial
01JTNS7W3P8TCBQE14F22MEHNH,3,6,5,1.0,0,0,1,0,0,1.0,asocial
01JTNS7W3P8TCBQE14F22MEHNH,3,7,5,1.0,0,0,1,0,0,1.0,asocial
01JTNS7W3P8TCBQE14F22MEHNH,3,8,5,1.0,0,0,0,0,0,1.0,asocial
01JTNS7W3P8TCBQE14F22MEHNH,3,9,5,1.0,0,0,0,1,0,1.0,asocial
01JTNS7W3P8TCBQE14F22MEHNH,4,0,5,1.0,1,0,2,0,5,1.0,asocial
01JTNS7W3P8TCBQE14F22MEHNH,4,1,5,1.0,0,0,2,1,5,1.0,asocial
01JTNS7W3P8TCBQE14F22MEHNH,4,2,5,1.0,0,0,1,0,5,1.0,asocial
01JTNS7W3P8TCBQE14F22MEHNH,4,3,5,1.0,0,0,0,0,5,1.0,asocial
01JTNS7W3P8TCBQE14F22MEHNH,4,4,5,1.0,0,0,2,0,5,1.0,asocial
01JTNS7W3P8TCBQE14F22MEHNH,4,5,5,1.0,1,0,12,0,5,1.0,asocial
01JTNS7W3P8TCBQE14F22MEHNH,4,6,5,1.0,0,0,1,0,5,1.0,asocial
01JTNS7W3P8TCBQE14F22MEHNH,4,7,5,1.0,0,0,1,0,5,1.0,asocial
01JTNS7W3P8TCBQE14F22MEHNH,4,8,5,1.0,0,0,0,0,5,1.0,asocial
01JTNS7W3P8TCBQE14F22MEHNH,4,9,5,1.0,0,0,0,1,5,1.0,asocial
01JTNS7W3P8TCBQE14F22MEHNH,5,0,5,1.0,1,0,2,1,5,1.0,asocial
01JTNS7W3P8TCBQE14F22MEHNH,5,1,5,1.0,0,0,2,1,5,1.0,asocial
01JTNS7W3P8TCBQE14F22MEHNH,5,2,5,1.0,0,0,1,0,5,1.0,asocial
01JTNS7W3P8TCBQE14F22MEHNH,5,3,5,1.0,0,0,0,0,5,1.0,asocial
01JTNS7W3P8TCBQE14F22MEHNH,5,4,5,1.0,0,0,2,0,5,1.0,asocial
01JTNS7W3P8TCBQE14F22MEHNH,5,5,5,1.0,2,0,20,0,5,1.0,asocial
01JTNS7W3P8TCBQE14F22MEHNH,5,6,5,1.0,0,0,1,0,5,1.0,asocial
01JTNS7W3P8TCBQE14F22MEHNH,5,7,5,1.0,0,0,1,0,5,1.0,asocial
01JTNS7W3P8TCBQE14F22MEHNH,5,8,5,1.0,0,0,0,0,5,1.0,asocial
01JTNS7W3P8TCBQE14F22MEHNH,5,9,5,1.0,0,0,0,1,5,1.0,asocial
01JTNS7W3P8TCBQE14F22MEHNH,7,0,5,0.0,1,0,2,1,-1,,asocial
01JTNS7W3P8TCBQE14F22MEHNH,7,1,5,0.0,0,0,3,1,-1,,asocial
01JTNS7W3P8TCBQE14F22MEHNH,7,2,5,0.0,0,0,1,0,-1,,asocial
01JTNS7W3P8TCBQE14F22MEHNH,7,3,5,0.0,0,0,0,0,-1,,asocial
01JTNS7W3P8TCBQE14F22MEHNH,7,4,5,0.0,0,0,3,0,-1,,asocial
01JTNS7W3P8TCBQE14F22MEHNH,7,5,5,0.0,3,0,33,2,-1,,asocial
01JTNS7W3P8TCBQE14F22MEHNH,7,6,5,0.0,0,0,1,0,-1,,asocial
01JTNS7W3P8TCBQE14F22MEHNH,7,7,5,0.0,0,0,1,0,-1,,asocial
01JTNS7W3P8TCBQE14F22MEHNH,7,8,5,0.0,0,0,0,0,-1,,asocial
01JTNS7W3P8TCBQE14F22MEHNH,7,9,5,0.0,0,0,0,1,-1,,asocial
01JTNS7W3P8TCBQE14F22MEHNH,8,0,4,1.0,1,0,2,1,5,0.0,asocial
01JTNS7W3P8TCBQE14F22MEHNH,8,1,4,1.0,0,0,3,1,5,0.0,asocial
01JTNS7W3P8TCBQE14F22MEHNH,8,2,4,1.0,0,0,1,0,5,0.0,asocial
01JTNS7W3P8TCBQE14F22MEHNH,8,3,4,1.0,0,0,0,0,5,0.0,asocial
01JTNS7W3P8TCBQE14F22MEHNH,8,4,4,1.0,0,0,4,0,5,0.0,asocial
01JTNS7W3P8TCBQE14F22MEHNH,8,5,4,1.0,3,1,36,8,5,0.0,asocial
01JTNS7W3P8TCBQE14F22MEHNH,8,6,4,1.0,0,0,1,0,5,0.0,asocial
01JTNS7W3P8TCBQE14F22MEHNH,8,7,4,1.0,0,0,1,0,5,0.0,asocial
01JTNS7W3P8TCBQE14F22MEHNH,8,8,4,1.0,0,0,0,0,5,0.0,asocial
01JTNS7W3P8TCBQE14F22MEHNH,8,9,4,1.0,0,0,0,1,5,0.0,asocial
01JTNS7W3P8TCBQE14F22MEHNH,9,0,4,1.0,1,0,3,1,4,1.0,asocial
01JTNS7W3P8TCBQE14F22MEHNH,9,1,4,1.0,0,0,3,1,4,1.0,asocial
01JTNS7W3P8TCBQE14F22MEHNH,9,2,4,1.0,0,0,1,0,4,1.0,asocial
01JTNS7W3P8TCBQE14F22MEHNH,9,3,4,1.0,0,0,0,0,4,1.0,asocial
01JTNS7W3P8TCBQE14F22MEHNH,9,4,4,1.0,1,0,7,0,4,1.0,asocial
01JTNS7W3P8TCBQE14F22MEHNH,9,5,4,1.0,3,1,41,8,4,1.0,asocial
01JTNS7W3P8TCBQE14F22MEHNH,9,6,4,1.0,0,0,1,0,4,1.0,asocial
01JTNS7W3P8TCBQE14F22MEHNH,9,7,4,1.0,0,0,2,0,4,1.0,asocial
01JTNS7W3P8TCBQE14F22MEHNH,9,8,4,1.0,0,0,0,0,4,1.0,asocial
01JTNS7W3P8TCBQE14F22MEHNH,9,9,4,1.0,0,0,0,1,4,1.0,asocial
01JTNS7W3P8TCBQE14F22MEHNH,10,0,4,1.0,1,0,3,1,4,1.0,asocial
01JTNS7W3P8TCBQE14F22MEHNH,10,1,4,1.0,0,0,3,1,4,1.0,asocial
01JTNS7W3P8TCBQE14F22MEHNH,10,2,4,1.0,0,0,1,0,4,1.0,asocial
01JTNS7W3P8TCBQE14F22MEHNH,10,3,4,1.0,0,0,0,0,4,1.0,asocial
01JTNS7W3P8TCBQE14F22MEHNH,10,4,4,1.0,2,0,12,0,4,1.0,asocial
01JTNS7W3P8TCBQE14F22MEHNH,10,5,4,1.0,3,1,46,8,4,1.0,asocial
01JTNS7W3P8TCBQE14F22MEHNH,10,6,4,1.0,0,0,1,0,4,1.0,asocial
01JTNS7W3P8TCBQE14F22MEHNH,10,7,4,1.0,0,0,2,0,4,1.0,asocial
01JTNS7W3P8TCBQE14F22MEHNH,10,8,4,1.0,0,0,0,0,4,1.0,asocial
01JTNS7W3P8TCBQE14F22MEHNH,10,9,4,1.0,0,0,0,1,4,1.0,asocial
01JTNS7W3P8TCBQE14F22MEHNH,11,0,4,1.0,1,0,3,1,4,1.0,asocial
01JTNS7W3P8TCBQE14F22MEHNH,11,1,4,1.0,0,0,4,1,4,1.0,asocial
01JTNS7W3P8TCBQE14F22MEHNH,11,2,4,1.0,0,0,1,0,4,1.0,asocial
01JTNS7W3P8TCBQE14F22MEHNH,11,3,4,1.0,0,0,0,0,4,1.0,asocial
01JTNS7W3P8TCBQE14F22MEHNH,11,4,4,1.0,3,0,17,1,4,1.0,asocial
01JTNS7W3P8TCBQE14F22MEHNH,11,5,4,1.0,3,1,48,8,4,1.0,asocial
01JTNS7W3P8TCBQE14F22MEHNH,11,6,4,1.0,0,0,1,0,4,1.0,asocial
01JTNS7W3P8TCBQE14F22MEHNH,11,7,4,1.0,0,0,3,0,4,1.0,asocial
01JTNS7W3P8TCBQE14F22MEHNH,11,8,4,1.0,0,0,0,0,4,1.0,asocial
01JTNS7W3P8TCBQE14F22MEHNH,11,9,4,1.0,0,0,0,1,4,1.0,asocial
01JTNS7W3P8TCBQE14F22MEHNH,12,0,4,1.0,1,0,3,1,4,1.0,asocial
01JTNS7W3P8TCBQE14F22MEHNH,12,1,4,1.0,0,0,5,1,4,1.0,asocial
01JTNS7W3P8TCBQE14F22MEHNH,12,2,4,1.0,0,0,1,0,4,1.0,asocial
01JTNS7W3P8TCBQE14F22MEHNH,12,3,4,1.0,0,0,0,0,4,1.0,asocial
01JTNS7W3P8TCBQE14F22MEHNH,12,4,4,1.0,4,0,22,2,4,1.0,asocial
01JTNS7W3P8TCBQE14F22MEHNH,12,5,4,1.0,3,1,49,9,4,1.0,asocial
01JTNS7W3P8TCBQE14F22MEHNH,12,6,4,1.0,0,0,1,0,4,1.0,asocial
01JTNS7W3P8TCBQE14F22MEHNH,12,7,4,1.0,0,0,4,0,4,1.0,asocial
01JTNS7W3P8TCBQE14F22MEHNH,12,8,4,1.0,0,0,0,0,4,1.0,asocial
01JTNS7W3P8TCBQE14F22MEHNH,12,9,4,1.0,0,0,0,1,4,1.0,asocial
01JTNS7W3P8TCBQE14F22MEHNH,13,0,4,1.0,1,0,3,1,4,1.0,asocial
01JTNS7W3P8TCBQE14F22MEHNH,13,1,4,1.0,0,0,5,1,4,1.0,asocial
01JTNS7W3P8TCBQE14F22MEHNH,13,2,4,1.0,0,0,1,0,4,1.0,asocial
01JTNS7W3P8TCBQE14F22MEHNH,13,3,4,1.0,0,0,0,0,4,1.0,asocial
01JTNS7W3P8TCBQE14F22MEHNH,13,4,4,1.0,5,0,26,2,4,1.0,asocial
01JTNS7W3P8TCBQE14F22MEHNH,13,5,4,1.0,3,1,52,10,4,1.0,asocial
01JTNS7W3P8TCBQE14F22MEHNH,13,6,4,1.0,0,0,1,0,4,1.0,asocial
01JTNS7W3P8TCBQE14F22MEHNH,13,7,4,1.0,0,0,5,1,4,1.0,asocial
01JTNS7W3P8TCBQE14F22MEHNH,13,8,4,1.0,0,0,0,0,4,1.0,asocial
01JTNS7W3P8TCBQE14F22MEHNH,13,9,4,1.0,0,0,0,1,4,1.0,asocial
01JTNS7W3P8TCBQE14F22MEHNH,14,0,4,1.0,1,0,3,1,4,1.0,asocial
01JTNS7W3P8TCBQE14F22MEHNH,14,1,4,1.0,0,0,5,1,4,1.0,asocial
01JTNS7W3P8TCBQE14F22MEHNH,14,2,4,1.0,0,0,1,0,4,1.0,asocial
01JTNS7W3P8TCBQE14F22MEHNH,14,3,4,1.0,0,0,0,0,4,1.0,asocial
01JTNS7W3P8TCBQE14F22MEHNH,14,4,4,1.0,6,0,31,3,4,1.0,asocial
01JTNS7W3P8TCBQE14F22MEHNH,14,5,4,1.0,3,1,55,10,4,1.0,asocial
01JTNS7W3P8TCBQE14F22MEHNH,14,6,4,1.0,0,0,1,0,4,1.0,asocial
01JTNS7W3P8TCBQE14F22MEHNH,14,7,4,1.0,0,0,6,1,4,1.0,asocial
01JTNS7W3P8TCBQE14F22MEHNH,14,8,4,1.0,0,0,0,0,4,1.0,asocial
01JTNS7W3P8TCBQE14F22MEHNH,14,9,4,1.0,0,0,0,1,4,1.0,asocial
01JTNS7W3P8TCBQE14F22MEHNH,15,0,4,1.0,1,0,3,1,4,1.0,asocial
01JTNS7W3P8TCBQE14F22MEHNH,15,1,4,1.0,0,0,5,1,4,1.0,asocial
01JTNS7W3P8TCBQE14F22MEHNH,15,2,4,1.0,0,0,1,0,4,1.0,asocial
01JTNS7W3P8TCBQE14F22MEHNH,15,3,4,1.0,0,0,0,0,4,1.0,asocial
01JTNS7W3P8TCBQE14F22MEHNH,15,4,4,1.0,7,0,35,4,4,1.0,asocial
01JTNS7W3P8TCBQE14F22MEHNH,15,5,4,1.0,3,1,58,10,4,1.0,asocial
01JTNS7W3P8TCBQE14F22MEHNH,15,6,4,1.0,0,0,1,0,4,1.0,asocial
01JTNS7W3P8TCBQE14F22MEHNH,15,7,4,1.0,0,0,8,1,4,1.0,asocial
01JTNS7W3P8TCBQE14F22MEHNH,15,8,4,1.0,0,0,0,0,4,1.0,asocial
01JTNS7W3P8TCBQE14F22MEHNH,15,9,4,1.0,0,0,0,1,4,1.0,asocial
01JTNS7W3P8TCBQE14F22MEHNH,16,0,4,1.0,1,0,3,1,4,1.0,asocial
01JTNS7W3P8TCBQE14F22MEHNH,16,1,4,1.0,0,0,5,1,4,1.0,asocial
01JTNS7W3P8TCBQE14F22MEHNH,16,2,4,1.0,0,0,1,0,4,1.0,asocial
01JTNS7W3P8TCBQE14F22MEHNH,16,3,4,1.0,0,0,0,0,4,1.0,asocial
01JTNS7W3P8TCBQE14F22MEHNH,16,4,4,1.0,8,0,39,4,4,1.0,asocial
01JTNS7W3P8TCBQE14F22MEHNH,16,5,4,1.0,3,1,61,10,4,1.0,asocial
01JTNS7W3P8TCBQE14F22MEHNH,16,6,4,1.0,0,0,1,0,4,1.0,asocial
01JTNS7W3P8TCBQE14F22MEHNH,16,7,4,1.0,0,0,10,2,4,1.0,asocial
01JTNS7W3P8TCBQE14F22MEHNH,16,8,4,1.0,0,0,0,0,4,1.0,asocial
01JTNS7W3P8TCBQE14F22MEHNH,16,9,4,1.0,0,0,0,1,4,1.0,asocial
01JTNS7W3P8TCBQE14F22MEHNH,17,0,4,1.0,1,0,3,1,4,1.0,asocial
01JTNS7W3P8TCBQE14F22MEHNH,17,1,4,1.0,0,0,6,1,4,1.0,asocial
01JTNS7W3P8TCBQE14F22MEHNH,17,2,4,1.0,0,0,1,0,4,1.0,asocial
01JTNS7W3P8TCBQE14F22MEHNH,17,3,4,1.0,0,0,0,0,4,1.0,asocial
01JTNS7W3P8TCBQE14F22MEHNH,17,4,4,1.0,9,0,42,5,4,1.0,asocial
01JTNS7W3P8TCBQE14F22MEHNH,17,5,4,1.0,3,1,64,10,4,1.0,asocial
01JTNS7W3P8TCBQE14F22MEHNH,17,6,4,1.0,0,0,1,0,4,1.0,asocial
01JTNS7W3P8TCBQE14F22MEHNH,17,7,4,1.0,0,0,12,2,4,1.0,asocial
01JTNS7W3P8TCBQE14F22MEHNH,17,8,4,1.0,0,0,0,0,4,1.0,asocial
01JTNS7W3P8TCBQE14F22MEHNH,17,9,4,1.0,0,0,0,1,4,1.0,asocial
01JTNS7W3P8TCBQE14F22MEHNH,18,0,5,1.0,1,0,3,1,4,1.0,asocial
01JTNS7W3P8TCBQE14F22MEHNH,18,1,5,1.0,0,0,6,1,4,1.0,asocial
01JTNS7W3P8TCBQE14F22MEHNH,18,2,5,1.0,0,0,1,0,4,1.0,asocial
01JTNS7W3P8TCBQE14F22MEHNH,18,3,5,1.0,0,0,0,0,4,1.0,asocial
01JTNS7W3P8TCBQE14F22MEHNH,18,4,5,1.0,10,0,46,5,4,1.0,asocial
01JTNS7W3P8TCBQE14F22MEHNH,18,5,5,1.0,3,1,67,10,4,1.0,asocial
01JTNS7W3P8TCBQE14F22MEHNH,18,6,5,1.0,0,0,1,0,4,1.0,asocial
01JTNS7W3P8TCBQE14F22MEHNH,18,7,5,1.0,0,0,15,2,4,1.0,asocial
01JTNS7W3P8TCBQE14F22MEHNH,18,8,5,1.0,0,0,0,0,4,1.0,asocial
01JTNS7W3P8TCBQE14F22MEHNH,18,9,5,1.0,0,0,0,1,4,1.0,asocial
01JTNS7W3P8TCBQE14F22MEHNH,19,0,5,1.0,1,0,3,1,5,1.0,asocial
01JTNS7W3P8TCBQE14F22MEHNH,19,1,5,1.0,0,0,6,2,5,1.0,asocial
01JTNS7W3P8TCBQE14F22MEHNH,19,2,5,1.0,0,0,1,0,5,1.0,asocial
01JTNS7W3P8TCBQE14F22MEHNH,19,3,5,1.0,0,0,0,0,5,1.0,asocial
01JTNS7W3P8TCBQE14F22MEHNH,19,4,5,1.0,10,0,47,6,5,1.0,asocial
01JTNS7W3P8TCBQE14F22MEHNH,19,5,5,1.0,4,1,71,10,5,1.0,asocial
01JTNS7W3P8TCBQE14F22MEHNH,19,6,5,1.0,0,0,1,0,5,1.0,asocial
01JTNS7W3P8TCBQE14F22MEHNH,19,7,5,1.0,0,0,18,2,5,1.0,asocial
01JTNS7W3P8TCBQE14F22MEHNH,19,8,5,1.0,0,0,0,0,5,1.0,asocial
01JTNS7W3P8TCBQE14F22MEHNH,19,9,5,1.0,0,0,0,1,5,1.0,asocial
01JTNS7W3P8TCBQE14F22MEHNH,20,0,5,1.0,1,0,3,1,5,1.0,asocial
01JTNS7W3P8TCBQE14F22MEHNH,20,1,5,1.0,0,0,7,2,5,1.0,asocial
01JTNS7W3P8TCBQE14F22MEHNH,20,2,5,1.0,0,0,1,0,5,1.0,asocial
01JTNS7W3P8TCBQE14F22MEHNH,20,3,5,1.0,0,0,0,0,5,1.0,asocial
01JTNS7W3P8TCBQE14F22MEHNH,20,4,5,1.0,10,0,48,7,5,1.0,asocial
01JTNS7W3P8TCBQE14F22MEHNH,20,5,5,1.0,5,1,76,10,5,1.0,asocial
01JTNS7W3P8TCBQE14F22MEHNH,20,6,5,1.0,0,0,1,0,5,1.0,asocial
01JTNS7W3P8TCBQE14F22MEHNH,20,7,5,1.0,0,0,20,2,5,1.0,asocial
01JTNS7W3P8TCBQE14F22MEHNH,20,8,5,1.0,0,0,0,0,5,1.0,asocial
01JTNS7W3P8TCBQE14F22MEHNH,20,9,5,1.0,0,0,0,1,5,1.0,asocial
01JTNS7W3P8TCBQE14F22MEHNH,21,0,7,1.0,1,0,3,1,5,1.0,asocial
01JTNS7W3P8TCBQE14F22MEHNH,21,1,7,1.0,0,0,8,2,5,1.0,asocial
01JTNS7W3P8TCBQE14F22MEHNH,21,2,7,1.0,0,0,1,0,5,1.0,asocial
01JTNS7W3P8TCBQE14F22MEHNH,21,3,7,1.0,0,0,0,0,5,1.0,asocial
01JTNS7W3P8TCBQE14F22MEHNH,21,4,7,1.0,10,0,48,7,5,1.0,asocial
01JTNS7W3P8TCBQE14F22MEHNH,21,5,7,1.0,6,1,82,10,5,1.0,asocial
01JTNS7W3P8TCBQE14F22MEHNH,21,6,7,1.0,0,0,1,0,5,1.0,asocial
01JTNS7W3P8TCBQE14F22MEHNH,21,7,7,1.0,0,0,22,3,5,1.0,asocial
01JTNS7W3P8TCBQE14F22MEHNH,21,8,7,1.0,0,0,0,0,5,1.0,asocial
01JTNS7W3P8TCBQE14F22MEHNH,21,9,7,1.0,0,0,0,1,5,1.0,asocial
01JTNS7W3P8TCBQE14F22MEHNH,22,0,5,1.0,1,0,3,1,7,1.0,asocial
01JTNS7W3P8TCBQE14F22MEHNH,22,1,5,1.0,0,0,8,2,7,1.0,asocial
01JTNS7W3P8TCBQE14F22MEHNH,22,2,5,1.0,0,0,1,0,7,1.0,asocial
01JTNS7W3P8TCBQE14F22MEHNH,22,3,5,1.0,0,0,0,0,7,1.0,asocial
01JTNS7W3P8TCBQE14F22MEHNH,22,4,5,1.0,10,0,48,7,7,1.0,asocial
