participant_id,round,arm,choice,reward,own_success,own_failure,group_success,group_failure,prev_choice,prev_reward,condition
01JW974XJR8E3E51JYY40R7ZH8,1,0,7,1.0,0,0,0,0,-1,,asocial
01JW974XJR8E3E51JYY40R7ZH8,1,1,7,1.0,0,0,0,0,-1,,asocial
01JW974XJR8E3E51JYY40R7ZH8,1,2,7,1.0,0,0,0,0,-1,,asocial
01JW974XJR8E3E51JYY40R7ZH8,1,3,7,1.0,0,0,0,0,-1,,asocial
01JW974XJR8E3E51JYY40R7ZH8,1,4,7,1.0,0,0,0,0,-1,,asocial
01JW974XJR8E3E51JYY40R7ZH8,1,5,7,1.0,0,0,0,0,-1,,asocial
01JW974XJR8E3E51JYY40R7ZH8,1,6,7,1.0,0,0,0,0,-1,,asocial
01JW974XJR8E3E51JYY40R7ZH8,1,7,7,1.0,0,0,0,0,-1,,asocial
01JW974XJR8E3E51JYY40R7ZH8,1,8,7,1.0,0,0,0,0,-1,,asocial
01JW974XJR8E3E51JYY40R7ZH8,1,9,7,1.0,0,0,0,0,-1,,asocial
01JW974XJR8E3E51JYY40R7ZH8,2,0,2,0.0,0,0,1,0,7,1.0,asocial
01JW974XJR8E3E51JYY40R7ZH8,2,1,2,0.0,0,0,1,0,7,1.0,asocial
01JW974XJR8E3E51JYY40R7ZH8,2,2,2,0.0,0,0,1,0,7,1.0,asocial
01JW974XJR8E3E51JYY40R7ZH8,2,3,2,0.0,0,0,1,0,7,1.0,asocial
01JW974XJR8E3E51JYY40R7ZH8,2,4,2,0.0,0,0,1,0,7,1.0,asocial
01JW974XJR8E3E51JYY40R7ZH8,2,5,2,0.0,0,0,0,0,7,1.0,asocial
01JW974XJR8E3E51JYY40R7ZH8,2,6,2,0.0,0,0,1,0,7,1.0,asocial
01JW974XJR8E3E51JYY40R7ZH8,2,7,2,0.0,1,0,1,0,7,1.0,asocial
01JW974XJR8E3E51JYY40R7ZH8,2,8,2,0.0,0,0,1,0,7,1.0,asocial
01JW974XJR8E3E51JYY40R7ZH8,2,9,2,0.0,0,0,0,1,7,1.0,asocial
01JW974XJR8E3E51JYY40R7ZH8,3,0,4,1.0,0,0,2,0,2,0.0,asocial
01JW974XJR8E3E51JYY40R7ZH8,3,1,4,1.0,0,0,2,0,2,0.0,asocial
01JW974XJR8E3E51JYY40R7ZH8,3,2,4,1.0,0,1,3,1,2,0.0,asocial
01JW974XJR8E3E51JYY40R7ZH8,3,3,4,1.0,0,0,2,0,2,0.0,asocial
01JW974XJR8E3E51JYY40R7ZH8,3,4,4,1.0,0,0,3,0,2,0.0,asocial
01JW974XJR8E3E51JYY40R7ZH8,3,5,4,1.0,0,0,0,0,2,0.0,asocial
01JW974XJR8E3E51JYY40R7ZH8,3,6,4,1.0,0,0,1,0,2,0.0,asocial
01JW974XJR8E3E51JYY40R7ZH8,3,7,4,1.0,1,0,2,0,2,0.0,asocial
01JW974XJR8E3E51JYY40R7ZH8,3,8,4,1.0,0,0,1,0,2,0.0,asocial
01JW974XJR8E3E51JYY40R7ZH8,3,9,4,1.0,0,0,0,1,2,0.0,asocial
01JW974XJR8E3E51JYY40R7ZH8,4,0,4,0.0,0,0,2,0,4,1.0,asocial
01JW974XJR8E3E51JYY40R7ZH8,4,1,4,0.0,0,0,3,0,4,1.0,asocial
01JW974XJR8E3E51JYY40R7ZH8,4,2,4,0.0,0,1,3,1,4,1.0,asocial
01JW974XJR8E3E51JYY40R7ZH8,4,3,4,0.0,0,0,3,0,4,1.0,asocial
01JW974XJR8E3E51JYY40R7ZH8,4,4,4,0.0,1,0,9,2,4,1.0,asocial
01JW974XJR8E3E51JYY40R7ZH8,4,5,4,0.0,0,0,0,0,4,1.0,asocial
01JW974XJR8E3E51JYY40R7ZH8,4,6,4,0.0,0,0,1,0,4,1.0,asocial
01JW974XJR8E3E51JYY40R7ZH8,4,7,4,0.0,1,0,2,0,4,1.0,asocial
01JW974XJR8E3E51JYY40R7ZH8,4,8,4,0.0,0,0,1,0,4,1.0,asocial
01JW974XJR8E3E51JYY40R7ZH8,4,9,4,0.0,0,0,0,1,4,1.0,asocial
01JW974XJR8E3E51JYY40R7ZH8,5,0,3,1.0,0,0,2,0,4,0.0,asocial
01JW974XJR8E3E51JYY40R7ZH8,5,1,3,1.0,0,0,4,1,4,0.0,asocial
01JW974XJR8E3E51JYY40R7ZH8,5,2,3,1.0,0,1,3,1,4,0.0,asocial
01JW974XJR8E3E51JYY40R7ZH8,5,3,3,1.0,0,0,3,0,4,0.0,asocial
01JW974XJR8E3E51JYY40R7ZH8,5,4,3,1.0,1,1,15,4,4,0.0,asocial
01JW974XJR8E3E51JYY40R7ZH8,5,5,3,1.0,0,0,0,0,4,0.0,asocial
01JW974XJR8E3E51JYY40R7ZH8,5,6,3,1.0,0,0,1,0,4,0.0,asocial
01JW974XJR8E3E51JYY40R7ZH8,5,7,3,1.0,1,0,2,0,4,0.0,asocial
01JW974XJR8E3E51JYY40R7ZH8,5,8,3,1.0,0,0,1,0,4,0.0,asocial
01JW974XJR8E3E51JYY40R7ZH8,5,9,3,1.0,0,0,0,1,4,0.0,asocial
01JW974XJR8E3E51JYY40R7ZH8,6,0,4,1.0,0,0,2,0,3,1.0,asocial
01JW974XJR8E3E51JYY40R7ZH8,6,1,4,1.0,0,0,5,1,3,1.0,asocial
01JW974XJR8E3E51JYY40R7ZH8,6,2,4,1.0,0,1,3,1,3,1.0,asocial
01JW974XJR8E3E51JYY40R7ZH8,6,3,4,1.0,1,0,5,0,3,1.0,asocial
01JW974XJR8E3E51JYY40R7ZH8,6,4,4,1.0,1,1,21,4,3,1.0,asocial
01JW974XJR8E3E51JYY40R7ZH8,6,5,4,1.0,0,0,0,0,3,1.0,asocial
01JW974XJR8E3E51JYY40R7ZH8,6,6,4,1.0,0,0,1,0,3,1.0,asocial
01JW974XJR8E3E51JYY40R7ZH8,6,7,4,1.0,1,0,2,0,3,1.0,asocial
01JW974XJR8E3E51JYY40R7ZH8,6,8,4,1.0,0,0,1,0,3,1.0,asocial
01JW974XJR8E3E51JYY40R7ZH8,6,9,4,1.0,0,0,0,1,3,1.0,asocial
01JW974XJR8E3E51JYY40R7ZH8,7,0,4,1.0,0,0,2,0,4,1.0,asocial
01JW974XJR8E3E51JYY40R7ZH8,7,1,4,1.0,0,0,5,1,4,1.0,asocial
01JW974XJR8E3E51JYY40R7ZH8,7,2,4,1.0,0,1,3,1,4,1.0,asocial
01JW974XJR8E3E51JYY40R7ZH8,7,3,4,1.0,1,0,7,0,4,1.0,asocial
01JW974XJR8E3E51JYY40R7ZH8,7,4,4,1.0,2,1,27,5,4,1.0,asocial
01JW974XJR8E3E51JYY40R7ZH8,7,5,4,1.0,0,0,0,0,4,1.0,asocial
01JW974XJR8E3E51JYY40R7ZH8,7,6,4,1.0,0,0,1,0,4,1.0,asocial
01JW974XJR8E3E51JYY40R7ZH8,7,7,4,1.0,1,0,2,0,4,1.0,asocial
01JW974XJR8E3E51JYY40R7ZH8,7,8,4,1.0,0,0,1,0,4,1.0,asocial
01JW974XJR8E3E51JYY40R7ZH8,7,9,4,1.0,0,0,0,1,4,1.0,asocial
01JW974XJR8E3E51JYY40R7ZH8,8,0,4,0.0,0,0,2,0,4,1.0,asocial
01JW974XJR8E3E51JYY40R7ZH8,8,1,4,0.0,0,0,5,1,4,1.0,asocial
01JW974XJR8E3E51JYY40R7ZH8,8,2,4,0.0,0,1,3,1,4,1.0,asocial
01JW974XJR8E3E51JYY40R7ZH8,8,3,4,0.0,1,0,12,0,4,1.0,asocial
01JW974XJR8E3E51JYY40R7ZH8,8,4,4,0.0,3,1,31,5,4,1.0,asocial
01JW974XJR8E3E51JYY40R7ZH8,8,5,4,0.0,0,0,0,0,4,1.0,asocial
01JW974XJR8E3E51JYY40R7ZH8,8,6,4,0.0,0,0,1,0,4,1.0,asocial
01JW974XJR8E3E51JYY40R7ZH8,8,7,4,0.0,1,0,2,0,4,1.0,asocial
01JW974XJR8E3E51JYY40R7ZH8,8,8,4,0.0,0,0,1,0,4,1.0,asocial
01JW974XJR8E3E51JYY40R7ZH8,8,9,4,0.0,0,0,0,1,4,1.0,asocial
01JW974XJR8E3E51JYY40R7ZH8,9,0,4,1.0,0,0,2,0,4,0.0,asocial
01JW974XJR8E3E51JYY40R7ZH8,9,1,4,1.0,0,0,6,1,4,0.0,asocial
01JW974XJR8E3E51JYY40R7ZH8,9,2,4,1.0,0,1,3,1,4,0.0,asocial
01JW974XJR8E3E51JYY40R7ZH8,9,3,4,1.0,1,0,15,2,4,0.0,asocial
01JW974XJR8E3E51JYY40R7ZH8,9,4,4,1.0,3,2,34,6,4,0.0,asocial
01JW974XJR8E3E51JYY40R7ZH8,9,5,4,1.0,0,0,0,0,4,0.0,asocial
01JW974XJR8E3E51JYY40R7ZH8,9,6,4,1.0,0,0,1,0,4,0.0,asocial
01JW974XJR8E3E51JYY40R7ZH8,9,7,4,1.0,1,0,2,0,4,0.0,asocial
01JW974XJR8E3E51JYY40R7ZH8,9,8,4,1.0,0,0,1,0,4,0.0,asocial
01JW974XJR8E3E51JYY40R7ZH8,9,9,4,1.0,0,0,0,1,4,0.0,asocial
01JW974XJR8E3E51JYY40R7ZH8,10,0,4,1.0,0,0,2,0,4,1.0,asocial
01JW974XJR8E3E51JYY40R7ZH8,10,1,4,1.0,0,0,7,1,4,1.0,asocial
01JW974XJR8E3E51JYY40R7ZH8,10,2,4,1.0,0,1,3,1,4,1.0,asocial
01JW974XJR8E3E51JYY40R7ZH8,10,3,4,1.0,1,0,18,2,4,1.0,asocial
01JW974XJR8E3E51JYY40R7ZH8,10,4,4,1.0,4,2,40,6,4,1.0,asocial
01JW974XJR8E3E51JYY40R7ZH8,10,5,4,1.0,0,0,0,0,4,1.0,asocial
01JW974XJR8E3E51JYY40R7ZH8,10,6,4,1.0,0,0,1,0,4,1.0,asocial
01JW974XJR8E3E51JYY40R7ZH8,10,7,4,1.0,1,0,2,0,4,1.0,asocial
01JW974XJR8E3E51JYY40R7ZH8,10,8,4,1.0,0,0,1,0,4,1.0,asocial
01JW974XJR8E3E51JYY40R7ZH8,10,9,4,1.0,0,0,0,1,4,1.0,asocial
01JW974XJR8E3E51JYY40R7ZH8,11,0,4,1.0,0,0,2,0,4,1.0,asocial
01JW974XJR8E3E51JYY40R7ZH8,11,1,4,1.0,0,0,7,1,4,1.0,asocial
01JW974XJR8E3E51JYY40R7ZH8,11,2,4,1.0,0,1,3,1,4,1.0,asocial
01JW974XJR8E3E51JYY40R7ZH8,11,3,4,1.0,1,0,18,4,4,1.0,asocial
01JW974XJR8E3E51JYY40R7ZH8,11,4,4,1.0,5,2,47,7,4,1.0,asocial
01JW974XJR8E3E51JYY40R7ZH8,11,5,4,1.0,0,0,0,0,4,1.0,asocial
01JW974XJR8E3E51JYY40R7ZH8,11,6,4,1.0,0,0,1,0,4,1.0,asocial
01JW974XJR8E3E51JYY40R7ZH8,11,7,4,1.0,1,0,2,0,4,1.0,asocial
01JW974XJR8E3E51JYY40R7ZH8,11,8,4,1.0,0,0,1,0,4,1.0,asocial
01JW974XJR8E3E51JYY40R7ZH8,11,9,4,1.0,0,0,0,1,4,1.0,asocial
01JW974XJR8E3E51JYY40R7ZH8,12,0,4,1.0,0,0,2,0,4,1.0,asocial
01JW974XJR8E3E51JYY40R7ZH8,12,1,4,1.0,0,0,7,1,4,1.0,asocial
01JW974XJR8E3E51JYY40R7ZH8,12,2,4,1.0,0,1,3,1,4,1.0,asocial
01JW974XJR8E3E51JYY40R7ZH8,12,3,4,1.0,1,0,18,4,4,1.0,asocial
01JW974XJR8E3E51JYY40R7ZH8,12,4,4,1.0,6,2,55,8,4,1.0,asocial
01JW974XJR8E3E51JYY40R7ZH8,12,5,4,1.0,0,0,0,0,4,1.0,asocial
01JW974XJR8E3E51JYY40R7ZH8,12,6,4,1.0,0,0,1,0,4,1.0,asocial
01JW974XJR8E3E51JYY40R7ZH8,12,7,4,1.0,1,0,2,0,4,1.0,asocial
01JW974XJR8E3E51JYY40R7ZH8,12,8,4,1.0,0,0,1,0,4,1.0,asocial
01JW974XJR8E3E51JYY40R7ZH8,12,9,4,1.0,0,0,0,1,4,1.0,asocial
01JW974XJR8E3E51JYY40R7ZH8,13,0,4,1.0,0,0,2,0,4,1.0,asocial
01JW974XJR8E3E51JYY40R7ZH8,13,1,4,1.0,0,0,7,1,4,1.0,asocial
01JW974XJR8E3E51JYY40R7ZH8,13,2,4,1.0,0,1,3,1,4,1.0,asocial
01JW974XJR8E3E51JYY40R7ZH8,13,3,4,1.0,1,0,18,4,4,1.0,asocial
01JW974XJR8E3E51JYY40R7ZH8,13,4,4,1.0,7,2,63,10,4,1.0,asocial
01JW974XJR8E3E51JYY40R7ZH8,13,5,4,1.0,0,0,0,0,4,1.0,asocial
01JW974XJR8E3E51JYY40R7ZH8,13,6,4,1.0,0,0,1,0,4,1.0,asocial
01JW974XJR8E3E51JYY40R7ZH8,13,7,4,1.0,1,0,2,0,4,1.0,asocial
01JW974XJR8E3E51JYY40R7ZH8,13,8,4,1.0,0,0,1,0,4,1.0,asocial
01JW974XJR8E3E51JYY40R7ZH8,13,9,4,1.0,0,0,0,1,4,1.0,asocial
01JW974XJR8E3E51JYY40R7ZH8,14,0,4,1.0,0,0,2,0,4,1.0,asocial
01JW974XJR8E3E51JYY40R7ZH8,14,1,4,1.0,0,0,8,1,4,1.0,asocial
01JW974XJR8E3E51JYY40R7ZH8,14,2,4,1.0,0,1,3,1,4,1.0,asocial
01JW974XJR8E3E51JYY40R7ZH8,14,3,4,1.0,1,0,18,4,4,1.0,asocial
01JW974XJR8E3E51JYY40R7ZH8,14,4,4,1.0,8,2,71,11,4,1.0,asocial
01JW974XJR8E3E51JYY40R7ZH8,14,5,4,1.0,0,0,0,0,4,1.0,asocial
01JW974XJR8E3E51JYY40R7ZH8,14,6,4,1.0,0,0,1,0,4,1.0,asocial
01JW974XJR8E3E51JYY40R7ZH8,14,7,4,1.0,1,0,2,0,4,1.0,asocial
01JW974XJR8E3E51JYY40R7ZH8,14,8,4,1.0,0,0,1,0,4,1.0,asocial
01JW974XJR8E3E51JYY40R7ZH8,14,9,4,1.0,0,0,0,1,4,1.0,asocial
01JW974XJR8E3E51JYY40R7ZH8,15,0,4,1.0,0,0,2,0,4,1.0,asocial
01JW974XJR8E3E51JYY40R7ZH8,15,1,4,1.0,0,0,8,1,4,1.0,asocial
01JW974XJR8E3E51JYY40R7ZH8,15,2,4,1.0,0,1,3,1,4,1.0,asocial
01JW974XJR8E3E51JYY40R7ZH8,15,3,4,1.0,1,0,18,4,4,1.0,asocial
01JW974XJR8E3E51JYY40R7ZH8,15,4,4,1.0,9,2,80,12,4,1.0,asocial
01JW974XJR8E3E51JYY40R7ZH8,15,5,4,1.0,0,0,0,0,4,1.0,asocial
01JW974XJR8E3E51JYY40R7ZH8,15,6,4,1.0,0,0,1,0,4,1.0,asocial
01JW974XJR8E3E51JYY40R7ZH8,15,7,4,1.0,1,0,2,0,4,1.0,asocial
01JW974XJR8E3E51JYY40R7ZH8,15,8,4,1.0,0,0,1,0,4,1.0,asocial
01JW974XJR8E3E51JYY40R7ZH8,15,9,4,1.0,0,0,0,1,4,1.0,asocial
01JW974XJR8E3E51JYY40R7ZH8,16,0,4,1.0,0,0,2,0,4,1.0,asocial
01JW974XJR8E3E51JYY40R7ZH8,16,1,4,1.0,0,0,8,1,4,1.0,asocial
01JW974XJR8E3E51JYY40R7ZH8,16,2,4,1.0,0,1,3,1,4,1.0,asocial
01JW974XJR8E3E51JYY40R7ZH8,16,3,4,1.0,1,0,18,4,4,1.0,asocial
01JW974XJR8E3E51JYY40R7ZH8,16,4,4,1.0,10,2,88,14,4,1.0,asocial
01JW974XJR8E3E51JYY40R7ZH8,16,5,4,1.0,0,0,0,0,4,1.0,asocial
01JW974XJR8E3E51JYY40R7ZH8,16,6,4,1.0,0,0,1,0,4,1.0,asocial
01JW974XJR8E3E51JYY40R7ZH8,16,7,4,1.0,1,0,2,0,4,1.0,asocial
01JW974XJR8E3E51JYY40R7ZH8,16,8,4,1.0,0,0,1,0,4,1.0,asocial
01JW974XJR8E3E51JYY40R7ZH8,16,9,4,1.0,0,0,0,1,4,1.0,asocial
01JW974XJR8E3E51JYY40R7ZH8,17,0,4,1.0,0,0,2,0,4,1.0,asocial
01JW974XJR8E3E51JYY40R7ZH8,17,1,4,1.0,0,0,8,1,4,1.0,asocial
01JW974XJR8E3E51JYY40R7ZH8,17,2,4,1.0,0,1,3,1,4,1.0,asocial
01JW974XJR8E3E51JYY40R7ZH8,17,3,4,1.0,1,0,18,4,4,1.0,asocial
01JW974XJR8E3E51JYY40R7ZH8,17,4,4,1.0,11,2,98,14,4,1.0,asocial
01JW974XJR8E3E51JYY40R7ZH8,17,5,4,1.0,0,0,0,0,4,1.0,asocial
01JW974XJR8E3E51JYY40R7ZH8,17,6,4,1.0,0,0,1,0,4,1.0,asocial
01JW974XJR8E3E51JYY40R7ZH8,17,7,4,1.0,1,0,2,0,4,1.0,asocial
01JW974XJR8E3E51JYY40R7ZH8,17,8,4,1.0,0,0,1,0,4,1.0,asocial
01JW974XJR8E3E51JYY40R7ZH8,17,9,4,1.0,0,0,0,1,4,1.0,asocial
01JW974XJR8E3E51JYY40R7ZH8,18,0,4,1.0,0,0,2,0,4,1.0,asocial
01JW974XJR8E3E51JYY40R7ZH8,18,1,4,1.0,0,0,8,1,4,1.0,asocial
01JW974XJR8E3E51JYY40R7ZH8,18,2,4,1.0,0,1,3,1,4,1.0,asocial
01JW974XJR8E3E51JYY40R7ZH8,18,3,4,1.0,1,0,19,4,4,1.0,asocial
01JW974XJR8E3E51JYY40R7ZH8,18,4,4,1.0,12,2,105,16,4,1.0,asocial
01JW974XJR8E3E51JYY40R7ZH8,18,5,4,1.0,0,0,0,0,4,1.0,asocial
01JW974XJR8E3E51JYY40R7ZH8,18,6,4,1.0,0,0,1,0,4,1.0,asocial
01JW974XJR8E3E51JYY40R7ZH8,18,7,4,1.0,1,0,2,0,4,1.0,asocial
01JW974XJR8E3E51JYY40R7ZH8,18,8,4,1.0,0,0,1,0,4,1.0,asocial
01JW974XJR8E3E51JYY40R7ZH8,18,9,4,1.0,0,0,0,1,4,1.0,asocial
01JW974XJR8E3E51JYY40R7ZH8,19,0,4,1.0,0,0,2,0,4,1.0,asocial
01JW974XJR8E3E51JYY40R7ZH8,19,1,4,1.0,0,0,8,1,4,1.0,asocial
01JW974XJR8E3E51JYY40R7ZH8,19,2,4,1.0,0,1,3,1,4,1.0,asocial
01JW974XJR8E3E51JYY40R7ZH8,19,3,4,1.0,1,0,20,4,4,1.0,asocial
01JW974XJR8E3E51JYY40R7ZH8,19,4,4,1.0,13,2,114,16,4,1.0,asocial
01JW974XJR8E3E51JYY40R7ZH8,19,5,4,1.0,0,0,0,0,4,1.0,asocial
01JW974XJR8E3E51JYY40R7ZH8,19,6,4,1.0,0,0,1,0,4,1.0,asocial
01JW974XJR8E3E51JYY40R7ZH8,19,7,4,1.0,1,0,2,0,4,1.0,asocial
01JW974XJR8E3E51JYY40R7ZH8,19,8,4,1.0,0,0,1,0,4,1.0,asocial
01JW974XJR8E3E51JYY40R7ZH8,19,9,4,1.0,0,0,0,1,4,1.0,asocial
01JW974XJR8E3E51JYY40R7ZH8,20,0,4,1.0,0,0,2,0,4,1.0,asocial
01JW974XJR8E3E51JYY40R7ZH8,20,1,4,1.0,0,0,8,1,4,1.0,asocial
01JW974XJR8E3E51JYY40R7ZH8,20,2,4,1.0,0,1,3,1,4,1.0,asocial
01JW974XJR8E3E51JYY40R7ZH8,20,3,4,1.0,1,0,21,4,4,1.0,asocial
01JW974XJR8E3E51JYY40R7ZH8,20,4,4,1.0,14,2,123,16,4,1.0,asocial
01JW974XJR8E3E51JYY40R7ZH8,20,5,4,1.0,0,0,0,0,4,1.0,asocial
01JW974XJR8E3E51JYY40R7ZH8,20,6,4,1.0,0,0,1,0,4,1.0,asocial
01JW974XJR8E3E51JYY40R7ZH8,20,7,4,1.0,1,0,2,0,4,1.0,asocial
01JW974XJR8E3E51JYY40R7ZH8,20,8,4,1.0,0,0,1,0,4,1.0,asocial
01JW974XJR8E3E51JYY40R7ZH8,20,9,4,1.0,0,0,0,1,4,1.0,asocial
01JW974XJR8E3E51JYY40R7ZH8,21,0,4,1.0,0,0,2,0,4,1.0,asocial
01JW974XJR8E3E51JYY40R7ZH8,21,1,4,1.0,0,0,8,1,4,1.0,asocial
01JW974XJR8E3E51JYY40R7ZH8,21,2,4,1.0,0,1,3,1,4,1.0,asocial
01JW974XJR8E3E51JYY40R7ZH8,21,3,4,1.0,1,0,21,4,4,1.0,asocial
01JW974XJR8E3E51JYY40R7ZH8,21,4,4,1.0,15,2,133,16,4,1.0,asocial
01JW974XJR8E3E51JYY40R7ZH8,21,5,4,1.0,0,0,0,0,4,1.0,asocial
01JW974XJR8E3E51JYY40R7ZH8,21,6,4,1.0,0,0,1,0,4,1.0,asocial
01JW974XJR8E3E51JYY40R7ZH8,21,7,4,1.0,1,0,2,0,4,1.0,asocial
01JW974XJR8E3E51JYY40R7ZH8,21,8,4,1.0,0,0,1,0,4,1.0,asocial
01JW974XJR8E3E51JYY40R7ZH8,21,9,4,1.0,0,0,0,1,4,1.0,asocial
01JW974XJR8E3E51JYY40R7ZH8,22,0,4,1.0,0,0,2,0,4,1.0,asocial
01JW974XJR8E3E51JYY40R7ZH8,22,1,4,1.0,0,0,8,1,4,1.0,asocial
01JW974XJR8E3E51JYY40R7ZH8,22,2,4,1.0,0,1,3,1,4,1.0,asocial
01JW974XJR8E3E51JYY40R7ZH8,22,3,4,1.0,1,0,22,4,4,1.0,asocial
01JW974XJR8E3E51JYY40R7ZH8,22,4,4,1.0,16,2,140,18,4,1.0,asocial
01JW974XJR8E3E51JYY40R7ZH8,22,5,4,1.0,0,0,0,0,4,1.0,asocial
01JW974XJR8E3E51JYY40R7ZH8,22,6,4,1.0,0,0,1,0,4,1.0,asocial
01JW974XJR8E3E51JYY40R7ZH8,22,7,4,1.0,1,0,2,0,4,1.0,asocial
01JW974XJR8E3E51JYY40R7ZH8,22,8,4,1.0,0,0,1,0,4,1.0,asocial
01JW974XJR8E3E51JYY40R7ZH8,22,9,4,1.0,0,0,0,1,4,1.0,asocial
01JW974XJR8E3E51JYY40R7ZH8,23,0,4,1.0,0,0,2,0,4,1.0,asocial
01JW974XJR8E3E51JYY40R7ZH8,23,1,4,1.0,0,0,8,1,4,1.0,asocial
01JW974XJR8E3E51JYY40R7ZH8,23,2,4,1.0,0,1,3,1,4,1.0,asocial
01JW974XJR8E3E51JYY40R7ZH8,23,3,4,1.0,1,0,22,4,4,1.0,asocial
01JW974XJR8E3E51JYY40R7ZH8,23,4,4,1.0,17,2,150,18,4,1.0,asocial
01JW974XJR8E3E51JYY40R7ZH8,23,5,4,1.0,0,0,0,0,4,1.0,asocial
01JW974XJR8E3E51JYY40R7ZH8,23,6,4,1.0,0,0,1,0,4,1.0,asocial
01JW974XJR8E3E51JYY40R7ZH8,23,7,4,1.0,1,0,2,0,4,1.0,asocial
01JW974XJR8E3E51JYY40R7ZH8,23,8,4,1.0,0,0,1,0,4,1.0,asocial
01JW974XJR8E3E51JYY40R7ZH8,23,9,4,1.0,0,0,0,1,4,1.0,asocial
01JW974XJR8E3E51JYY40R7ZH8,24,0,4,1.0,0,0,2,0,4,1.0,asocial
01JW974XJR8E3E51JYY40R7ZH8,24,1,4,1.0,0,0,8,1,4,1.0,asocial
01JW974XJR8E3E51JYY40R7ZH8,24,2,4,1.0,0,1,3,1,4,1.0,asocial
01JW974XJR8E3E51JYY40R7ZH8,24,3,4,1.0,1,0,22,4,4,1.0,asocial
01JW974XJR8E3E51JYY40R7ZH8,24,4,4,1.0,18,2,159,19,4,1.0,asocial
01JW974XJR8E3E51JYY40R7ZH8,24,5,4,1.0,0,0,0,0,4,1.0,asocial
01JW974XJR8E3E51JYY40R7ZH8,24,6,4,1.0,0,0,1,0,4,1.0,asocial
01JW974XJR8E3E51JYY40R7ZH8,24,7,4,1.0,1,0,2,0,4,1.0,asocial
01JW974XJR8E3E51JYY40R7ZH8,24,8,4,1.0,0,0,1,0,4,1.0,asocial
01JW974XJR8E3E51JYY40R7ZH8,24,9,4,1.0,0,0,0,1,4,1.0,asocial
01JW974XJR8E3E51JYY40R7ZH8,25,0,4,1.0,0,0,2,0,4,1.0,asocial
01JW974XJR8E3E51JYY40R7ZH8,25,1,4,1.0,0,0,8,1,4,1.0,asocial
01JW974XJR8E3E51JYY40R7ZH8,25,2,4,1.0,0,1,3,1,4,1.0,asocial
01JW974XJR8E3E51JYY40R7ZH8,25,3,4,1.0,1,0,22,4,4,1.0,asocial
01JW974XJR8E3E51JYY40R7ZH8,25,4,4,1.0,19,2,168,20,4,1.0,asocial
01JW974XJR8E3E51JYY40R7ZH8,25,5,4,1.0,0,0,0,0,4,1.0,asocial
01JW974XJR8E3E51JYY40R7ZH8,25,6,4,1.0,0,0,1,0,4,1.0,asocial
01JW974XJR8E3E51JYY40R7ZH8,25,7,4,1.0,1,0,2,0,4,1.0,asocial
01JW974XJR8E3E51JYY40R7ZH8,25,8,4,1.0,0,0,1,0,4,1.0,asocial
01JW974XJR8E3E51JYY40R7ZH8,25,9,4,1.0,0,0,0,1,4,1.0,asocial
01JW974XJR8E3E51JYY40R7ZH8,26,0,4,0.0,0,0,2,0,4,1.0,asocial
01JW974XJR8E3E51JYY40R7ZH8,26,1,4,0.0,0,0,8,1,4,1.0,asocial
01JW974XJR8E3E51JYY40R7ZH8,26,2,4,0.0,0,1,3,1,4,1.0,asocial
01JW974XJR8E3E51JYY40R7ZH8,26,3,4,0.0,1,0,23,4,4,1.0,asocial
01JW974XJR8E3E51JYY40R7ZH8,26,4,4,0.0,20,2,176,21,4,1.0,asocial
01JW974XJR8E3E51JYY40R7ZH8,26,5,4,0.0,0,0,0,0,4,1.0,asocial
01JW974XJR8E3E51JYY40R7ZH8,26,6,4,0.0,0,0,1,0,4,1.0,asocial
01JW974XJR8E3E51JYY40R7ZH8,26,7,4,0.0,1,0,2,0,4,1.0,asocial
01JW974XJR8E3E51JYY40R7ZH8,26,8,4,0.0,0,0,1,0,4,1.0,asocial
01JW974XJR8E3E51JYY40R7ZH8,26,9,4,0.0,0,0,0,1,4,1.0,asocial
01JW974XJR8E3E51JYY40R7ZH8,27,0,4,1.0,0,0,2,0,4,0.0,asocial
01JW974XJR8E3E51JYY40R7ZH8,27,1,4,1.0,0,0,8,1,4,0.0,asocial
01JW974XJR8E3E51JYY40R7ZH8,27,2,4,1.0,0,1,3,1,4,0.0,asocial
01JW974XJR8E3E51JYY40R7ZH8,27,3,4,1.0,1,0,23,4,4,0.0,asocial
01JW974XJR8E3E51JYY40R7ZH8,27,4,4,1.0,20,3,184,22,4,0.0,asocial
01JW974XJR8E3E51JYY40R7ZH8,27,5,4,1.0,0,0,0,0,4,0.0,asocial
01JW974XJR8E3E51JYY40R7ZH8,27,6,4,1.0,0,0,1,0,4,0.0,asocial
01JW974XJR8E3E51JYY40R7ZH8,27,7,4,1.0,1,0,3,0,4,0.0,asocial
01JW974XJR8E3E51JYY40R7ZH8,27,8,4,1.0,0,0,1,0,4,0.0,asocial
01JW974XJR8E3E51JYY40R7ZH8,27,9,4,1.0,0,0,0,1,4,0.0,asocial
01JW974XJR8E3E51JYY40R7ZH8,28,0,4,1.0,0,0,2,0,4,1.0,asocial
01JW974XJR8E3E51JYY40R7ZH8,28,1,4,1.0,0,0,10,1,4,1.0,asocial
01JW974XJR8E3E51JYY40R7ZH8,28,2,4,1.0,0,1,3,1,4,1.0,asocial
01JW974XJR8E3E51JYY40R7ZH8,28,3,4,1.0,1,0,23,4,4,1.0,asocial
01JW974XJR8E3E51JYY40R7ZH8,28,4,4,1.0,21,3,191,23,4,1.0,asocial
01JW974XJR8E3E51JYY40R7ZH8,28,5,4,1.0,0,0,0,0,4,1.0,asocial
01JW974XJR8E3E51JYY40R7ZH8,28,6,4,1.0,0,0,1,0,4,1.0,asocial
01JW974XJR8E3E51JYY40R7ZH8,28,7,4,1.0,1,0,3,0,4,1.0,asocial
01JW974XJR8E3E51JYY40R7ZH8,28,8,4,1.0,0,0,1,0,4,1.0,asocial
01JW974XJR8E3E51JYY40R7ZH8,28,9,4,1.0,0,0,0,1,4,1.0,asocial
01JW974XJR8E3E51JYY40R7ZH8,29,0,4,1.0,0,0,2,0,4,1.0,asocial
01JW974XJR8E3E51JYY40R7ZH8,29,1,4,1.0,0,0,11,1,4,1.0,asocial
01JW974XJR8E3E51JYY40R7ZH8,29,2,4,1.0,0,1,3,1,4,1.0,asocial
01JW974XJR8E3E51JYY40R7ZH8,29,3,4,1.0,1,0,23,4,4,1.0,asocial
01JW974XJR8E3E51JYY40R7ZH8,29,4,4,1.0,22,3,200,23,4,1.0,asocial
01JW974XJR8E3E51JYY40R7ZH8,29,5,4,1.0,0,0,0,0,4,1.0,asocial
01JW974XJR8E3E51JYY40R7ZH8,29,6,4,1.0,0,0,1,0,4,1.0,asocial
01JW974XJR8E3E51JYY40R7ZH8,29,7,4,1.0,1,0,3,0,4,1.0,asocial
01JW974XJR8E3E51JYY40R7ZH8,29,8,4,1.0,0,0,1,0,4,1.0,asocial
01JW974XJR8E3E51JYY40R7ZH8,29,9,4,1.0,0,0,0,1,4,1.0,asocial
01JW974XJR8E3E51JYY40R7ZH8,30,0,4,0.0,0,0,2,0,4,1.0,asocial
01JW974XJR8E3E51JYY40R7ZH8,30,1,4,0.0,0,0,12,1,4,1.0,asocial
01JW974XJR8E3E51JYY40R7ZH8,30,2,4,0.0,0,1,3,1,4,1.0,asocial
01JW974XJR8E3E51JYY40R7ZH8,30,3,4,0.0,1,0,23,4,4,1.0,asocial
01JW974XJR8E3E51JYY40R7ZH8,30,4,4,0.0,23,3,207,25,4,1.0,asocial
01JW974XJR8E3E51JYY40R7ZH8,30,5,4,0.0,0,0,0,0,4,1.0,asocial
01JW974XJR8E3E51JYY40R7ZH8,30,6,4,0.0,0,0,1,0,4,1.0,asocial
01JW974XJR8E3E51JYY40R7ZH8,30,7,4,0.0,1,0,3,0,4,1.0,asocial
01JW974XJR8E3E51JYY40R7ZH8,30,8,4,0.0,0,0,1,0,4,1.0,asocial
01JW974XJR8E3E51JYY40R7ZH8,30,9,4,0.0,0,0,0,1,4,1.0,asocial
01JW974XJR8E3E51JYY40R7ZH8,31,0,4,1.0,0,0,2,0,4,0.0,asocial
01JW974XJR8E3E51JYY40R7ZH8,31,1,4,1.0,0,0,13,1,4,0.0,asocial
01JW974XJR8E3E51JYY40R7ZH8,31,2,4,1.0,0,1,3,1,4,0.0,asocial
01JW974XJR8E3E51JYY40R7ZH8,31,3,4,1.0,1,0,23,4,4,0.0,asocial
01JW974XJR8E3E51JYY40R7ZH8,31,4,4,1.0,23,4,213,28,4,0.0,asocial
01JW974XJR8E3E51JYY40R7ZH8,31,5,4,1.0,0,0,0,0,4,0.0,asocial
01JW974XJR8E3E51JYY40R7ZH8,31,6,4,1.0,0,0,1,0,4,0.0,asocial
01JW974XJR8E3E51JYY40R7ZH8,31,7,4,1.0,1,0,3,0,4,0.0,asocial
01JW974XJR8E3E51JYY40R7ZH8,31,8,4,1.0,0,0,1,0,4,0.0,asocial
01JW974XJR8E3E51JYY40R7ZH8,31,9,4,1.0,0,0,0,1,4,0.0,asocial
01JW974XJR8E3E51JYY40R7ZH8,32,0,4,1.0,0,0,2,0,4,1.0,asocial
01JW974XJR8E3E51JYY40R7ZH8,32,1,4,1.0,0,0,13,1,4,1.0,asocial
01JW974XJR8E3E51JYY40R7ZH8,32,2,4,1.0,0,1,3,1,4,1.0,asocial
01JW974XJR8E3E51JYY40R7ZH8,32,3,4,1.0,1,0,23,4,4,1.0,asocial
01JW974XJR8E3E51JYY40R7ZH8,32,4,4,1.0,24,4,221,30,4,1.0,asocial
01JW974XJR8E3E51JYY40R7ZH8,32,5,4,1.0,0,0,0,0,4,1.0,asocial
01JW974XJR8E3E51JYY40R7ZH8,32,6,4,1.0,0,0,1,0,4,1.0,asocial
01JW974XJR8E3E51JYY40R7ZH8,32,7,4,1.0,1,0,3,0,4,1.0,asocial
01JW974XJR8E3E51JYY40R7ZH8,32,8,4,1.0,0,0,1,0,4,1.0,asocial
01JW974XJR8E3E51JYY40R7ZH8,32,9,4,1.0,0,0,0,1,4,1.0,asocial
01JW974XJR8E3E51JYY40R7ZH8,33,0,4,1.0,0,0,2,0,4,1.0,asocial
01JW974XJR8E3E51JYY40R7ZH8,33,1,4,1.0,0,0,14,2,4,1.0,asocial
01JW974XJR8E3E51JYY40R7ZH8,33,2,4,1.0,0,1,3,1,4,1.0,asocial
01JW974XJR8E3E51JYY40R7ZH8,33,3,4,1.0,1,0,23,4,4,1.0,asocial
01JW974XJR8E3E51JYY40R7ZH8,33,4,4,1.0,25,4,228,31,4,1.0,asocial
01JW974XJR8E3E51JYY40R7ZH8,33,5,4,1.0,0,0,0,0,4,1.0,asocial
01JW974XJR8E3E51JYY40R7ZH8,33,6,4,1.0,0,0,1,0,4,1.0,asocial
01JW974XJR8E3E51JYY40R7ZH8,33,7,4,1.0,1,0,3,0,4,1.0,asocial
01JW974XJR8E3E51JYY40R7ZH8,33,8,4,1.0,0,0,1,0,4,1.0,asocial
01JW974XJR8E3E51JYY40R7ZH8,33,9,4,1.0,0,0,0,1,4,1.0,asocial
01JW974XJR8E3E51JYY40R7ZH8,34,0,4,1.0,0,0,2,0,4,1.0,asocial
01JW974XJR8E3E51JYY40R7ZH8,34,1,4,1.0,0,0,14,2,4,1.0,asocial
01JW974XJR8E3E51JYY40R7ZH8,34,2,4,1.0,0,1,3,1,4,1.0,asocial
01JW974XJR8E3E51JYY40R7ZH8,34,3,4,1.0,1,0,23,4,4,1.0,asocial
01JW974XJR8E3E51JYY40R7ZH8,34,4,4,1.0,26,4,238,31,4,1.0,asocial
01JW974XJR8E3E51JYY40R7ZH8,34,5,4,1.0,0,0,0,0,4,1.0,asocial
01JW974XJR8E3E51JYY40R7ZH8,34,6,4,1.0,0,0,1,0,4,1.0,asocial
01JW974XJR8E3E51JYY40R7ZH8,34,7,4,1.0,1,0,3,0,4,1.0,asocial
01JW974XJR8E3E51JYY40R7ZH8,34,8,4,1.0,0,0,1,0,4,1.0,asocial
01JW974XJR8E3E51JYY40R7ZH8,34,9,4,1.0,0,0,0,1,4,1.0,asocial
01JW974XJR8E3E51JYY40R7ZH8,35,0,4,1.0,0,0,2,0,4,1.0,asocial
01JW974XJR8E3E51JYY40R7ZH8,35,1,4,1.0,0,0,14,2,4,1.0,asocial
01JW974XJR8E3E51JYY40R7ZH8,35,2,4,1.0,0,1,3,1,4,1.0,asocial
01JW974XJR8E3E51JYY40R7ZH8,35,3,4,1.0,1,0,23,4,4,1.0,asocial
01JW974XJR8E3E51JYY40R7ZH8,35,4,4,1.0,27,4,247,32,4,1.0,asocial
01JW974XJR8E3E51JYY40R7ZH8,35,5,4,1.0,0,0,0,0,4,1.0,asocial
01JW974XJR8E3E51JYY40R7ZH8,35,6,4,1.0,0,0,1,0,4,1.0,asocial
01JW974XJR8E3E51JYY40R7ZH8,35,7,4,1.0,1,0,3,0,4,1.0,asocial
01JW974XJR8E3E51JYY40R7ZH8,35,8,4,1.0,0,0,1,0,4,1.0,asocial
01JW974XJR8E3E51JYY40R7ZH8,35,9,4,1.0,0,0,0,1,4,1.0,asocial
01JW974XJR8E3E51JYY40R7ZH8,36,0,4,1.0,0,0,2,0,4,1.0,asocial
01JW974XJR8E3E51JYY40R7ZH8,36,1,4,1.0,0,0,15,2,4,1.0,asocial
01JW974XJR8E3E51JYY40R7ZH8,36,2,4,1.0,0,1,3,1,4,1.0,asocial
01JW974XJR8E3E51JYY40R7ZH8,36,3,4,1.0,1,0,23,4,4,1.0,asocial
01JW974XJR8E3E51JYY40R7ZH8,36,4,4,1.0,28,4,254,34,4,1.0,asocial
01JW974XJR8E3E51JYY40R7ZH8,36,5,4,1.0,0,0,0,0,4,1.0,asocial
01JW974XJR8E3E51JYY40R7ZH8,36,6,4,1.0,0,0,1,0,4,1.0,asocial
01JW974XJR8E3E51JYY40R7ZH8,36,7,4,1.0,1,0,3,0,4,1.0,asocial
01JW974XJR8E3E51JYY40R7ZH8,36,8,4,1.0,0,0,1,0,4,1.0,asocial
01JW974XJR8E3E51JYY40R7ZH8,36,9,4,1.0,0,0,0,1,4,1.0,asocial
01JW974XJR8E3E51JYY40R7ZH8,37,0,4,1.0,0,0,2,0,4,1.0,asocial
01JW974XJR8E3E51JYY40R7ZH8,37,1,4,1.0,0,0,16,2,4,1.0,asocial
01JW974XJR8E3E51JYY40R7ZH8,37,2,4,1.0,0,1,3,1,4,1.0,asocial
01JW974XJR8E3E51JYY40R7ZH8,37,3,4,1.0,1,0,23,4,4,1.0,asocial
01JW974XJR8E3E51JYY40R7ZH8,37,4,4,1.0,29,4,261,36,4,1.0,asocial
01JW974XJR8E3E51JYY40R7ZH8,37,5,4,1.0,0,0,0,0,4,1.0,asocial
01JW974XJR8E3E51JYY40R7ZH8,37,6,4,1.0,0,0,1,0,4,1.0,asocial
01JW974XJR8E3E51JYY40R7ZH8,37,7,4,1.0,1,0,3,0,4,1.0,asocial
01JW974XJR8E3E51JYY40R7ZH8,37,8,4,1.0,0,0,1,0,4,1.0,asocial
01JW974XJR8E3E51JYY40R7ZH8,37,9,4,1.0,0,0,0,1,4,1.0,asocial
01JW974XJR8E3E51JYY40R7ZH8,38,0,4,1.0,0,0,2,0,4,1.0,asocial
01JW974XJR8E3E51JYY40R7ZH8,38,1,4,1.0,0,0,17,2,4,1.0,asocial
01JW974XJR8E3E51JYY40R7ZH8,38,2,4,1.0,0,1,3,1,4,1.0,asocial
01JW974XJR8E3E51JYY40R7ZH8,38,3,4,1.0,1,0,23,4,4,1.0,asocial
01JW974XJR8E3E51JYY40R7ZH8,38,4,4,1.0,30,4,269,37,4,1.0,asocial
01JW974XJR8E3E51JYY40R7ZH8,38,5,4,1.0,0,0,0,0,4,1.0,asocial
01JW974XJR8E3E51JYY40R7ZH8,38,6,4,1.0,0,0,1,0,4,1.0,asocial
01JW974XJR8E3E51JYY40R7ZH8,38,7,4,1.0,1,0,3,0,4,1.0,asocial
01JW974XJR8E3E51JYY40R7ZH8,38,8,4,1.0,0,0,1,0,4,1.0,asocial
01JW974XJR8E3E51JYY40R7ZH8,38,9,4,1.0,0,0,0,1,4,1.0,asocial
01JW974XJR8E3E51JYY40R7ZH8,39,0,4,1.0,0,0,2,0,4,1.0,asocial
01JW974XJR8E3E51JYY40R7ZH8,39,1,4,1.0,0,0,17,2,4,1.0,asocial
01JW974XJR8E3E51JYY40R7ZH8,39,2,4,1.0,0,1,3,1,4,1.0,asocial
01JW974XJR8E3E51JYY40R7ZH8,39,3,4,1.0,1,0,23,4,4,1.0,asocial
01JW974XJR8E3E51JYY40R7ZH8,39,4,4,1.0,31,4,279,37,4,1.0,asocial
01JW974XJR8E3E51JYY40R7ZH8,39,5,4,1.0,0,0,0,0,4,1.0,asocial
01JW974XJR8E3E51JYY40R7ZH8,39,6,4,1.0,0,0,1,0,4,1.0,asocial
01JW974XJR8E3E51JYY40R7ZH8,39,7,4,1.0,1,0,3,0,4,1.0,asocial
01JW974XJR8E3E51JYY40R7ZH8,39,8,4,1.0,0,0,1,0,4,1.0,asocial
01JW974XJR8E3E51JYY40R7ZH8,39,9,4,1.0,0,0,0,1,4,1.0,asocial
01JW974XJR8E3E51JYY40R7ZH8,40,0,4,1.0,0,0,2,0,4,1.0,asocial
01JW974XJR8E3E51JYY40R7ZH8,40,1,4,1.0,0,0,17,3,4,1.0,asocial
01JW974XJR8E3E51JYY40R7ZH8,40,2,4,1.0,0,1,3,1,4,1.0,asocial
01JW974XJR8E3E51JYY40R7ZH8,40,3,4,1.0,1,0,24,4,4,1.0,asocial
01JW974XJR8E3E51JYY40R7ZH8,40,4,4,1.0,32,4,287,37,4,1.0,asocial
01JW974XJR8E3E51JYY40R7ZH8,40,5,4,1.0,0,0,0,0,4,1.0,asocial
01JW974XJR8E3E51JYY40R7ZH8,40,6,4,1.0,0,0,1,0,4,1.0,asocial
01JW974XJR8E3E51JYY40R7ZH8,40,7,4,1.0,1,0,3,0,4,1.0,asocial
01JW974XJR8E3E51JYY40R7ZH8,40,8,4,1.0,0,0,1,0,4,1.0,asocial
01JW974XJR8E3E51JYY40R7ZH8,40,9,4,1.0,0,0,0,1,4,1.0,asocial
01JW974XJR8E3E51JYY40R7ZH8,41,0,4,1.0,0,0,2,0,4,1.0,asocial
01JW974XJR8E3E51JYY40R7ZH8,41,1,4,1.0,0,0,17,3,4,1.0,asocial
01JW974XJR8E3E51JYY40R7ZH8,41,2,4,1.0,0,1,3,1,4,1.0,asocial
01JW974XJR8E3E51JYY40R7ZH8,41,3,4,1.0,1,0,24,5,4,1.0,asocial
01JW974XJR8E3E51JYY40R7ZH8,41,4,4,1.0,33,4,296,37,4,1.0,asocial
01JW974XJR8E3E51JYY40R7ZH8,41,5,4,1.0,0,0,0,0,4,1.0,asocial
01JW974XJR8E3E51JYY40R7ZH8,41,6,4,1.0,0,0,1,0,4,1.0,asocial
01JW974XJR8E3E51JYY40R7ZH8,41,7,4,1.0,1,0,3,0,4,1.0,asocial
01JW974XJR8E3E51JYY40R7ZH8,41,8,4,1.0,0,0,1,0,4,1.0,asocial
01JW974XJR8E3E51JYY40R7ZH8,41,9,4,1.0,0,0,0,1,4,1.0,asocial
01JW974XJR8E3E51JYY40R7ZH8,42,0,4,1.0,0,0,2,0,4,1.0,asocial
01JW974XJR8E3E51JYY40R7ZH8,42,1,4,1.0,0,0,17,3,4,1.0,asocial
01JW974XJR8E3E51JYY40R7ZH8,42,2,4,1.0,0,1,3,1,4,1.0,asocial
01JW974XJR8E3E51JYY40R7ZH8,42,3,4,1.0,1,0,24,5,4,1.0,asocial
01JW974XJR8E3E51JYY40R7ZH8,42,4,4,1.0,34,4,305,37,4,1.0,asocial
01JW974XJR8E3E51JYY40R7ZH8,42,5,4,1.0,0,0,0,0,4,1.0,asocial
01JW974XJR8E3E51JYY40R7ZH8,42,6,4,1.0,0,0,1,0,4,1.0,asocial
01JW974XJR8E3E51JYY40R7ZH8,42,7,4,1.0,1,0,3,0,4,1.0,asocial
01JW974XJR8E3E51JYY40R7ZH8,42,8,4,1.0,0,0,1,0,4,1.0,asocial
01JW974XJR8E3E51JYY40R7ZH8,42,9,4,1.0,0,0,0,1,4,1.0,asocial
01JW974XJR8E3E51JYY40R7ZH8,43,0,4,1.0,0,0,2,0,4,1.0,asocial
01JW974XJR8E3E51JYY40R7ZH8,43,1,4,1.0,0,0,17,4,4,1.0,asocial
01JW974XJR8E3E51JYY40R7ZH8,43,2,4,1.0,0,1,3,1,4,1.0,asocial
01JW974XJR8E3E51JYY40R7ZH8,43,3,4,1.0,1,0,24,5,4,1.0,asocial
01JW974XJR8E3E51JYY40R7ZH8,43,4,4,1.0,35,4,314,37,4,1.0,asocial
01JW974XJR8E3E51JYY40R7ZH8,43,5,4,1.0,0,0,0,0,4,1.0,asocial
01JW974XJR8E3E51JYY40R7ZH8,43,6,4,1.0,0,0,1,0,4,1.0,asocial
01JW974XJR8E3E51JYY40R7ZH8,43,7,4,1.0,1,0,3,0,4,1.0,asocial
01JW974XJR8E3E51JYY40R7ZH8,43,8,4,1.0,0,0,1,0,4,1.0,asocial
01JW974XJR8E3E51JYY40R7ZH8,43,9,4,1.0,0,0,0,1,4,1.0,asocial
01JW974XJR8E3E51JYY40R7ZH8,44,0,4,1.0,0,0,2,0,4,1.0,asocial
01JW974XJR8E3E51JYY40R7ZH8,44,1,4,1.0,0,0,17,4,4,1.0,asocial
01JW974XJR8E3E51JYY40R7ZH8,44,2,4,1.0,0,1,3,1,4,1.0,asocial
01JW974XJR8E3E51JYY40R7ZH8,44,3,4,1.0,1,0,24,5,4,1.0,asocial
01JW974XJR8E3E51JYY40R7ZH8,44,4,4,1.0,36,4,321,38,4,1.0,asocial
01JW974XJR8E3E51JYY40R7ZH8,44,5,4,1.0,0,0,0,0,4,1.0,asocial
01JW974XJR8E3E51JYY40R7ZH8,44,6,4,1.0,0,0,1,0,4,1.0,asocial
01JW974XJR8E3E51JYY40R7ZH8,44,7,4,1.0,1,0,4,0,4,1.0,asocial
01JW974XJR8E3E51JYY40R7ZH8,44,8,4,1.0,0,0,1,0,4,1.0,asocial
01JW974XJR8E3E51JYY40R7ZH8,44,9,4,1.0,0,0,0,1,4,1.0,asocial
01JW974XJR8E3E51JYY40R7ZH8,45,0,4,1.0,0,0,2,0,4,1.0,asocial
01JW974XJR8E3E51JYY40R7ZH8,45,1,4,1.0,0,0,18,4,4,1.0,asocial
01JW974XJR8E3E51JYY40R7ZH8,45,2,4,1.0,0,1,3,1,4,1.0,asocial
01JW974XJR8E3E51JYY40R7ZH8,45,3,4,1.0,1,0,24,5,4,1.0,asocial
01JW974XJR8E3E51JYY40R7ZH8,45,4,4,1.0,37,4,328,40,4,1.0,asocial
01JW974XJR8E3E51JYY40R7ZH8,45,5,4,1.0,0,0,0,0,4,1.0,asocial
01JW974XJR8E3E51JYY40R7ZH8,45,6,4,1.0,0,0,1,0,4,1.0,asocial
01JW974XJR8E3E51JYY40R7ZH8,45,7,4,1.0,1,0,4,0,4,1.0,asocial
01JW974XJR8E3E51JYY40R7ZH8,45,8,4,1.0,0,0,1,0,4,1.0,asocial
01JW974XJR8E3E51JYY40R7ZH8,45,9,4,1.0,0,0,0,1,4,1.0,asocial
01JW974XJR8E3E51JYY40R7ZH8,46,0,4,1.0,0,0,2,0,4,1.0,asocial
01JW974XJR8E3E51JYY40R7ZH8,46,1,4,1.0,0,0,18,4,4,1.0,asocial
01JW974XJR8E3E51JYY40R7ZH8,46,2,4,1.0,0,1,3,1,4,1.0,asocial
01JW974XJR8E3E51JYY40R7ZH8,46,3,4,1.0,1,0,24,5,4,1.0,asocial
01JW974XJR8E3E51JYY40R7ZH8,46,4,4,1.0,38,4,338,40,4,1.0,asocial
01JW974XJR8E3E51JYY40R7ZH8,46,5,4,1.0,0,0,0,0,4,1.0,asocial
01JW974XJR8E3E51JYY40R7ZH8,46,6,4,1.0,0,0,1,0,4,1.0,asocial
01JW974XJR8E3E51JYY40R7ZH8,46,7,4,1.0,1,0,4,0,4,1.0,asocial
01JW974XJR8E3E51JYY40R7ZH8,46,8,4,1.0,0,0,1,0,4,1.0,asocial
01JW974XJR8E3E51JYY40R7ZH8,46,9,4,1.0,0,0,0,1,4,1.0,asocial
01JW974XJR8E3E51JYY40R7ZH8,47,0,4,1.0,0,0,2,0,4,1.0,asocial
01JW974XJR8E3E51JYY40R7ZH8,47,1,4,1.0,0,0,18,4,4,1.0,asocial
01JW974XJR8E3E51JYY40R7ZH8,47,2,4,1.0,0,1,3,1,4,1.0,asocial
01JW974XJR8E3E51JYY40R7ZH8,47,3,4,1.0,1,0,24,5,4,1.0,asocial
01JW974XJR8E3E51JYY40R7ZH8,47,4,4,1.0,39,4,347,41,4,1.0,asocial
01JW974XJR8E3E51JYY40R7ZH8,47,5,4,1.0,0,0,0,0,4,1.0,asocial
01JW974XJR8E3E51JYY40R7ZH8,47,6,4,1.0,0,0,1,0,4,1.0,asocial
01JW974XJR8E3E51JYY40R7ZH8,47,7,4,1.0,1,0,4,0,4,1.0,asocial
01JW974XJR8E3E51JYY40R7ZH8,47,8,4,1.0,0,0,1,0,4,1.0,asocial
01JW974XJR8E3E51JYY40R7ZH8,47,9,4,1.0,0,0,0,1,4,1.0,asocial
01JW974XJR8E3E51JYY40R7ZH8,48,0,4,1.0,0,0,2,0,4,1.0,asocial
01JW974XJR8E3E51JYY40R7ZH8,48,1,4,1.0,0,0,18,4,4,1.0,asocial
01JW974XJR8E3E51JYY40R7ZH8,48,2,4,1.0,0,1,3,1,4,1.0,asocial
01JW974XJR8E3E51JYY40R7ZH8,48,3,4,1.0,1,0,25,5,4,1.0,asocial
01JW974XJR8E3E51JYY40R7ZH8,48,4,4,1.0,40,4,353,44,4,1.0,asocial
01JW974XJR8E3E51JYY40R7ZH8,48,5,4,1.0,0,0,0,0,4,1.0,asocial
01JW974XJR8E3E51JYY40R7ZH8,48,6,4,1.0,0,0,1,0,4,1.0,asocial
01JW974XJR8E3E51JYY40R7ZH8,48,7,4,1.0,1,0,4,0,4,1.0,asocial
01JW974XJR8E3E51JYY40R7ZH8,48,8,4,1.0,0,0,1,0,4,1.0,asocial
01JW974XJR8E3E51JYY40R7ZH8,48,9,4,1.0,0,0,0,1,4,1.0,asocial
01JW974XJR8E3E51JYY40R7ZH8,49,0,4,1.0,0,0,2,0,4,1.0,asocial
01JW974XJR8E3E51JYY40R7ZH8,49,1,4,1.0,0,0,18,4,4,1.0,asocial
01JW974XJR8E3E51JYY40R7ZH8,49,2,4,1.0,0,1,3,1,4,1.0,asocial
01JW974XJR8E3E51JYY40R7ZH8,49,3,4,1.0,1,0,26,5,4,1.0,asocial
01JW974XJR8E3E51JYY40R7ZH8,49,4,4,1.0,41,4,361,45,4,1.0,asocial
01JW974XJR8E3E51JYY40R7ZH8,49,5,4,1.0,0,0,0,0,4,1.0,asocial
01JW974XJR8E3E51JYY40R7ZH8,49,6,4,1.0,0,0,1,0,4,1.0,asocial
01JW974XJR8E3E51JYY40R7ZH8,49,7,4,1.0,1,0,4,0,4,1.0,asocial
01JW974XJR8E3E51JYY40R7ZH8,49,8,4,1.0,0,0,1,0,4,1.0,asocial
01JW974XJR8E3E51JYY40R7ZH8,49,9,4,1.0,0,0,0,1,4,1.0,asocial
01JW974XJR8E3E51JYY40R7ZH8,50,0,4,1.0,0,0,2,0,4,1.0,asocial
01JW974XJR8E3E51JYY40R7ZH8,50,1,4,1.0,0,0,18,4,4,1.0,asocial
01JW974XJR8E3E51JYY40R7ZH8,50,2,4,1.0,0,1,3,1,4,1.0,asocial
01JW974XJR8E3E51JYY40R7ZH8,50,3,4,1.0,1,0,26,5,4,1.0,asocial
01JW974XJR8E3E51JYY40R7ZH8,50,4,4,1.0,42,4,369,46,4,1.0,asocial
01JW974XJR8E3E51JYY40R7ZH8,50,5,4,1.0,0,0,0,0,4,1.0,asocial
01JW974XJR8E3E51JYY40R7ZH8,50,6,4,1.0,0,0,1,0,4,1.0,asocial
01JW974XJR8E3E51JYY40R7ZH8,50,7,4,1.0,1,0,5,0,4,1.0,asocial
01JW974XJR8E3E51JYY40R7ZH8,50,8,4,1.0,0,0,1,0,4,1.0,asocial
01JW974XJR8E3E51JYY40R7ZH8,50,9,4,1.0,0,0,0,1,4,1.0,asocial
01JW974XJR8E3E51JYY40R7ZH8,51,0,4,1.0,0,0,2,0,4,1.0,asocial
01JW974XJR8E3E51JYY40R7ZH8,51,1,4,1.0,0,0,18,4,4,1.0,asocial
01JW974XJR8E3E51JYY40R7ZH8,51,2,4,1.0,0,1,3,1,4,1.0,asocial
01JW974XJR8E3E51JYY40R7ZH8,51,3,4,1.0,1,0,26,5,4,1.0,asocial
01JW974XJR8E3E51JYY40R7ZH8,51,4,4,1.0,43,4,378,46,4,1.0,asocial
01JW974XJR8E3E51JYY40R7ZH8,51,5,4,1.0,0,0,0,0,4,1.0,asocial
01JW974XJR8E3E51JYY40R7ZH8,51,6,4,1.0,0,0,1,0,4,1.0,asocial
01JW974XJR8E3E51JYY40R7ZH8,51,7,4,1.0,1,0,6,0,4,1.0,asocial
01JW974XJR8E3E51JYY40R7ZH8,51,8,4,1.0,0,0,1,0,4,1.0,asocial
01JW974XJR8E3E51JYY40R7ZH8,51,9,4,1.0,0,0,0,1,4,1.0,asocial
01JW9752CPM09HPW1D7P74C9VB,1,0,9,0.0,0,0,0,0,-1,,asocial
01JW9752CPM09HPW1D7P74C9VB,1,1,9,0.0,0,0,0,0,-1,,asocial
01JW9752CPM09HPW1D7P74C9VB,1,2,9,0.0,0,0,0,0,-1,,asocial
01JW9752CPM09HPW1D7P74C9VB,1,3,9,0.0,0,0,0,0,-1,,asocial
01JW9752CPM09HPW1D7P74C9VB,1,4,9,0.0,0,0,0,0,-1,,asocial
01JW9752CPM09HPW1D7P74C9VB,1,5,9,0.0,0,0,0,0,-1,,asocial
01JW9752CPM09HPW1D7P74C9VB,1,6,9,0.0,0,0,0,0,-1,,asocial
01JW9752CPM09HPW1D7P74C9VB,1,7,9,0.0,0,0,0,0,-1,,asocial
01JW9752CPM09HPW1D7P74C9VB,1,8,9,0.0,0,0,0,0,-1,,asocial
01JW9752CPM09HPW1D7P74C9VB,1,9,9,0.0,0,0,0,0,-1,,asocial
01JW9752CPM09HPW1D7P74C9VB,2,0,3,1.0,0,0,1,0,9,0.0,asocial
01JW9752CPM09HPW1D7P74C9VB,2,1,3,1.0,0,0,1,0,9,0.0,asocial
01JW9752CPM09HPW1D7P74C9VB,2,2,3,1.0,0,0,1,0,9,0.0,asocial
01JW9752CPM09HPW1D7P74C9VB,2,3,3,1.0,0,0,1,0,9,0.0,asocial
01JW9752CPM09HPW1D7P74C9VB,2,4,3,1.0,0,0,1,0,9,0.0,asocial
01JW9752CPM09HPW1D7P74C9VB,2,5,3,1.0,0,0,0,0,9,0.0,asocial
01JW9752CPM09HPW1D7P74C9VB,2,6,3,1.0,0,0,1,0,9,0.0,asocial
01JW9752CPM09HPW1D7P74C9VB,2,7,3,1.0,0,0,1,0,9,0.0,asocial
01JW9752CPM09HPW1D7P74C9VB,2,8,3,1.0,0,0,1,0,9,0.0,asocial
01JW9752CPM09HPW1D7P74C9VB,2,9,3,1.0,0,1,0,1,9,0.0,asocial
01JW9752CPM09HPW1D7P74C9VB,3,0,3,1.0,0,0,2,0,3,1.0,asocial
01JW9752CPM09HPW1D7P74C9VB,3,1,3,1.0,0,0,2,0,3,1.0,asocial
01JW9752CPM09HPW1D7P74C9VB,3,2,3,1.0,0,0,3,1,3,1.0,asocial
01JW9752CPM09HPW1D7P74C9VB,3,3,3,1.0,1,0,2,0,3,1.0,asocial
01JW9752CPM09HPW1D7P74C9VB,3,4,3,1.0,0,0,3,0,3,1.0,asocial
01JW9752CPM09HPW1D7P74C9VB,3,5,3,1.0,0,0,0,0,3,1.0,asocial
01JW9752CPM09HPW1D7P74C9VB,3,6,3,1.0,0,0,1,0,3,1.0,asocial
01JW9752CPM09HPW1D7P74C9VB,3,7,3,1.0,0,0,2,0,3,1.0,asocial
01JW9752CPM09HPW1D7P74C9VB,3,8,3,1.0,0,0,1,0,3,1.0,asocial
01JW9752CPM09HPW1D7P74C9VB,3,9,3,1.0,0,1,0,1,3,1.0,asocial
01JW9752CPM09HPW1D7P74C9VB,4,0,4,1.0,0,0,2,0,3,1.0,asocial
01JW9752CPM09HPW1D7P74C9VB,4,1,4,1.0,0,0,3,0,3,1.0,asocial
01JW9752CPM09HPW1D7P74C9VB,4,2,4,1.0,0,0,3,1,3,1.0,asocial
01JW9752CPM09HPW1D7P74C9VB,4,3,4,1.0,2,0,3,0,3,1.0,asocial
01JW9752CPM09HPW1D7P74C9VB,4,4,4,1.0,0,0,9,2,3,1.0,asocial
01JW9752CPM09HPW1D7P74C9VB,4,5,4,1.0,0,0,0,0,3,1.0,asocial
01JW9752CPM09HPW1D7P74C9VB,4,6,4,1.0,0,0,1,0,3,1.0,asocial
01JW9752CPM09HPW1D7P74C9VB,4,7,4,1.0,0,0,2,0,3,1.0,asocial
01JW9752CPM09HPW1D7P74C9VB,4,8,4,1.0,0,0,1,0,3,1.0,asocial
01JW9752CPM09HPW1D7P74C9VB,4,9,4,1.0,0,1,0,1,3,1.0,asocial
01JW9752CPM09HPW1D7P74C9VB,5,0,4,1.0,0,0,2,0,4,1.0,asocial
01JW9752CPM09HPW1D7P74C9VB,5,1,4,1.0,0,0,4,1,4,1.0,asocial
01JW9752CPM09HPW1D7P74C9VB,5,2,4,1.0,0,0,3,1,4,1.0,asocial
01JW9752CPM09HPW1D7P74C9VB,5,3,4,1.0,2,0,3,0,4,1.0,asocial
01JW9752CPM09HPW1D7P74C9VB,5,4,4,1.0,1,0,15,4,4,1.0,asocial
01JW9752CPM09HPW1D7P74C9VB,5,5,4,1.0,0,0,0,0,4,1.0,asocial
01JW9752CPM09HPW1D7P74C9VB,5,6,4,1.0,0,0,1,0,4,1.0,asocial
01JW9752CPM09HPW1D7P74C9VB,5,7,4,1.0,0,0,2,0,4,1.0,asocial
01JW9752CPM09HPW1D7P74C9VB,5,8,4,1.0,0,0,1,0,4,1.0,asocial
01JW9752CPM09HPW1D7P74C9VB,5,9,4,1.0,0,1,0,1,4,1.0,asocial
01JW9752CPM09HPW1D7P74C9VB,6,0,4,0.0,0,0,2,0,4,1.0,asocial
01JW9752CPM09HPW1D7P74C9VB,6,1,4,0.0,0,0,5,1,4,1.0,asocial
01JW9752CPM09HPW1D7P74C9VB,6,2,4,0.0,0,0,3,1,4,1.0,asocial
01JW9752CPM09HPW1D7P74C9VB,6,3,4,0.0,2,0,5,0,4,1.0,asocial
01JW9752CPM09HPW1D7P74C9VB,6,4,4,0.0,2,0,21,4,4,1.0,asocial
01JW9752CPM09HPW1D7P74C9VB,6,5,4,0.0,0,0,0,0,4,1.0,asocial
01JW9752CPM09HPW1D7P74C9VB,6,6,4,0.0,0,0,1,0,4,1.0,asocial
01JW9752CPM09HPW1D7P74C9VB,6,7,4,0.0,0,0,2,0,4,1.0,asocial
01JW9752CPM09HPW1D7P74C9VB,6,8,4,0.0,0,0,1,0,4,1.0,asocial
01JW9752CPM09HPW1D7P74C9VB,6,9,4,0.0,0,1,0,1,4,1.0,asocial
01JW9752CPM09HPW1D7P74C9VB,7,0,3,1.0,0,0,2,0,4,0.0,asocial
01JW9752CPM09HPW1D7P74C9VB,7,1,3,1.0,0,0,5,1,4,0.0,asocial
01JW9752CPM09HPW1D7P74C9VB,7,2,3,1.0,0,0,3,1,4,0.0,asocial
01JW9752CPM09HPW1D7P74C9VB,7,3,3,1.0,2,0,7,0,4,0.0,asocial
01JW9752CPM09HPW1D7P74C9VB,7,4,3,1.0,2,1,27,5,4,0.0,asocial
01JW9752CPM09HPW1D7P74C9VB,7,5,3,1.0,0,0,0,0,4,0.0,asocial
01JW9752CPM09HPW1D7P74C9VB,7,6,3,1.0,0,0,1,0,4,0.0,asocial
01JW9752CPM09HPW1D7P74C9VB,7,7,3,1.0,0,0,2,0,4,0.0,asocial
01JW9752CPM09HPW1D7P74C9VB,7,8,3,1.0,0,0,1,0,4,0.0,asocial
01JW9752CPM09HPW1D7P74C9VB,7,9,3,1.0,0,1,0,1,4,0.0,asocial
01JW9752CPM09HPW1D7P74C9VB,8,0,3,1.0,0,0,2,0,3,1.0,asocial
01JW9752CPM09HPW1D7P74C9VB,8,1,3,1.0,0,0,5,1,3,1.0,asocial
01JW9752CPM09HPW1D7P74C9VB,8,2,3,1.0,0,0,3,1,3,1.0,asocial
01JW9752CPM09HPW1D7P74C9VB,8,3,3,1.0,3,0,12,0,3,1.0,asocial
01JW9752CPM09HPW1D7P74C9VB,8,4,3,1.0,2,1,31,5,3,1.0,asocial
01JW9752CPM09HPW1D7P74C9VB,8,5,3,1.0,0,0,0,0,3,1.0,asocial
01JW9752CPM09HPW1D7P74C9VB,8,6,3,1.0,0,0,1,0,3,1.0,asocial
01JW9752CPM09HPW1D7P74C9VB,8,7,3,1.0,0,0,2,0,3,1.0,asocial
01JW9752CPM09HPW1D7P74C9VB,8,8,3,1.0,0,0,1,0,3,1.0,asocial
01JW9752CPM09HPW1D7P74C9VB,8,9,3,1.0,0,1,0,1,3,1.0,asocial
01JW9752CPM09HPW1D7P74C9VB,9,0,4,1.0,0,0,2,0,3,1.0,asocial
01JW9752CPM09HPW1D7P74C9VB,9,1,4,1.0,0,0,6,1,3,1.0,asocial
01JW9752CPM09HPW1D7P74C9VB,9,2,4,1.0,0,0,3,1,3,1.0,asocial
01JW9752CPM09HPW1D7P74C9VB,9,3,4,1.0,4,0,15,2,3,1.0,asocial
01JW9752CPM09HPW1D7P74C9VB,9,4,4,1.0,2,1,34,6,3,1.0,asocial
01JW9752CPM09HPW1D7P74C9VB,9,5,4,1.0,0,0,0,0,3,1.0,asocial
01JW9752CPM09HPW1D7P74C9VB,9,6,4,1.0,0,0,1,0,3,1.0,asocial
01JW9752CPM09HPW1D7P74C9VB,9,7,4,1.0,0,0,2,0,3,1.0,asocial
01JW9752CPM09HPW1D7P74C9VB,9,8,4,1.0,0,0,1,0,3,1.0,asocial
01JW9752CPM09HPW1D7P74C9VB,9,9,4,1.0,0,1,0,1,3,1.0,asocial
01JW9752CPM09HPW1D7P74C9VB,10,0,4,0.0,0,0,2,0,4,1.0,asocial
01JW9752CPM09HPW1D7P74C9VB,10,1,4,0.0,0,0,7,1,4,1.0,asocial
01JW9752CPM09HPW1D7P74C9VB,10,2,4,0.0,0,0,3,1,4,1.0,asocial
01JW9752CPM09HPW1D7P74C9VB,10,3,4,0.0,4,0,18,2,4,1.0,asocial
01JW9752CPM09HPW1D7P74C9VB,10,4,4,0.0,3,1,40,6,4,1.0,asocial
01JW9752CPM09HPW1D7P74C9VB,10,5,4,0.0,0,0,0,0,4,1.0,asocial
01JW9752CPM09HPW1D7P74C9VB,10,6,4,0.0,0,0,1,0,4,1.0,asocial
01JW9752CPM09HPW1D7P74C9VB,10,7,4,0.0,0,0,2,0,4,1.0,asocial
01JW9752CPM09HPW1D7P74C9VB,10,8,4,0.0,0,0,1,0,4,1.0,asocial
01JW9752CPM09HPW1D7P74C9VB,10,9,4,0.0,0,1,0,1,4,1.0,asocial
01JW9752CPM09HPW1D7P74C9VB,11,0,4,1.0,0,0,2,0,4,0.0,asocial
01JW9752CPM09HPW1D7P74C9VB,11,1,4,1.0,0,0,7,1,4,0.0,asocial
01JW9752CPM09HPW1D7P74C9VB,11,2,4,1.0,0,0,3,1,4,0.0,asocial
01JW9752CPM09HPW1D7P74C9VB,11,3,4,1.0,4,0,18,4,4,0.0,asocial
01JW9752CPM09HPW1D7P74C9VB,11,4,4,1.0,3,2,47,7,4,0.0,asocial
01JW9752CPM09HPW1D7P74C9VB,11,5,4,1.0,0,0,0,0,4,0.0,asocial
01JW9752CPM09HPW1D7P74C9VB,11,6,4,1.0,0,0,1,0,4,0.0,asocial
01JW9752CPM09HPW1D7P74C9VB,11,7,4,1.0,0,0,2,0,4,0.0,asocial
01JW9752CPM09HPW1D7P74C9VB,11,8,4,1.0,0,0,1,0,4,0.0,asocial
01JW9752CPM09HPW1D7P74C9VB,11,9,4,1.0,0,1,0,1,4,0.0,asocial
01JW9752CPM09HPW1D7P74C9VB,12,0,4,1.0,0,0,2,0,4,1.0,asocial
01JW9752CPM09HPW1D7P74C9VB,12,1,4,1.0,0,0,7,1,4,1.0,asocial
01JW9752CPM09HPW1D7P74C9VB,12,2,4,1.0,0,0,3,1,4,1.0,asocial
01JW9752CPM09HPW1D7P74C9VB,12,3,4,1.0,4,0,18,4,4,1.0,asocial
01JW9752CPM09HPW1D7P74C9VB,12,4,4,1.0,4,2,55,8,4,1.0,asocial
01JW9752CPM09HPW1D7P74C9VB,12,5,4,1.0,0,0,0,0,4,1.0,asocial
01JW9752CPM09HPW1D7P74C9VB,12,6,4,1.0,0,0,1,0,4,1.0,asocial
01JW9752CPM09HPW1D7P74C9VB,12,7,4,1.0,0,0,2,0,4,1.0,asocial
01JW9752CPM09HPW1D7P74C9VB,12,8,4,1.0,0,0,1,0,4,1.0,asocial
01JW9752CPM09HPW1D7P74C9VB,12,9,4,1.0,0,1,0,1,4,1.0,asocial
01JW9752CPM09HPW1D7P74C9VB,13,0,4,1.0,0,0,2,0,4,1.0,asocial
01JW9752CPM09HPW1D7P74C9VB,13,1,4,1.0,0,0,7,1,4,1.0,asocial
01JW9752CPM09HPW1D7P74C9VB,13,2,4,1.0,0,0,3,1,4,1.0,asocial
01JW9752CPM09HPW1D7P74C9VB,13,3,4,1.0,4,0,18,4,4,1.0,asocial
01JW9752CPM09HPW1D7P74C9VB,13,4,4,1.0,5,2,63,10,4,1.0,asocial
01JW9752CPM09HPW1D7P74C9VB,13,5,4,1.0,0,0,0,0,4,1.0,asocial
01JW9752CPM09HPW1D7P74C9VB,13,6,4,1.0,0,0,1,0,4,1.0,asocial
01JW9752CPM09HPW1D7P74C9VB,13,7,4,1.0,0,0,2,0,4,1.0,asocial
01JW9752CPM09HPW1D7P74C9VB,13,8,4,1.0,0,0,1,0,4,1.0,asocial
01JW9752CPM09HPW1D7P74C9VB,13,9,4,1.0,0,1,0,1,4,1.0,asocial
01JW9752CPM09HPW1D7P74C9VB,14,0,4,1.0,0,0,2,0,4,1.0,asocial
01JW9752CPM09HPW1D7P74C9VB,14,1,4,1.0,0,0,8,1,4,1.0,asocial
01JW9752CPM09HPW1D7P74C9VB,14,2,4,1.0,0,0,3,1,4,1.0,asocial
01JW9752CPM09HPW1D7P74C9VB,14,3,4,1.0,4,0,18,4,4,1.0,asocial
01JW9752CPM09HPW1D7P74C9VB,14,4,4,1.0,6,2,71,11,4,1.0,asocial
01JW9752CPM09HPW1D7P74C9VB,14,5,4,1.0,0,0,0,0,4,1.0,asocial
01JW9752CPM09HPW1D7P74C9VB,14,6,4,1.0,0,0,1,0,4,1.0,asocial
01JW9752CPM09HPW1D7P74C9VB,14,7,4,1.0,0,0,2,0,4,1.0,asocial
01JW9752CPM09HPW1D7P74C9VB,14,8,4,1.0,0,0,1,0,4,1.0,asocial
01JW9752CPM09HPW1D7P74C9VB,14,9,4,1.0,0,1,0,1,4,1.0,asocial
01JW9752CPM09HPW1D7P74C9VB,15,0,4,1.0,0,0,2,0,4,1.0,asocial
01JW9752CPM09HPW1D7P74C9VB,15,1,4,1.0,0,0,8,1,4,1.0,asocial
01JW9752CPM09HPW1D7P74C9VB,15,2,4,1.0,0,0,3,1,4,1.0,asocial
01JW9752CPM09HPW1D7P74C9VB,15,3,4,1.0,4,0,18,4,4,1.0,asocial
01JW9752CPM09HPW1D7P74C9VB,15,4,4,1.0,7,2,80,12,4,1.0,asocial
01JW9752CPM09HPW1D7P74C9VB,15,5,4,1.0,0,0,0,0,4,1.0,asocial
01JW9752CPM09HPW1D7P74C9VB,15,6,4,1.0,0,0,1,0,4,1.0,asocial
01JW9752CPM09HPW1D7P74C9VB,15,7,4,1.0,0,0,2,0,4,1.0,asocial
01JW9752CPM09HPW1D7P74C9VB,15,8,4,1.0,0,0,1,0,4,1.0,asocial
01JW9752CPM09HPW1D7P74C9VB,15,9,4,1.0,0,1,0,1,4,1.0,asocial
01JW9752CPM09HPW1D7P74C9VB,16,0,4,1.0,0,0,2,0,4,1.0,asocial
01JW9752CPM09HPW1D7P74C9VB,16,1,4,1.0,0,0,8,1,4,1.0,asocial
01JW9752CPM09HPW1D7P74C9VB,16,2,4,1.0,0,0,3,1,4,1.0,asocial
01JW9752CPM09HPW1D7P74C9VB,16,3,4,1.0,4,0,18,4,4,1.0,asocial
01JW9752CPM09HPW1D7P74C9VB,16,4,4,1.0,8,2,88,14,4,1.0,asocial
01JW9752CPM09HPW1D7P74C9VB,16,5,4,1.0,0,0,0,0,4,1.0,asocial
01JW9752CPM09HPW1D7P74C9VB,16,6,4,1.0,0,0,1,0,4,1.0,asocial
01JW9752CPM09HPW1D7P74C9VB,16,7,4,1.0,0,0,2,0,4,1.0,asocial
01JW9752CPM09HPW1D7P74C9VB,16,8,4,1.0,0,0,1,0,4,1.0,asocial
01JW9752CPM09HPW1D7P74C9VB,16,9,4,1.0,0,1,0,1,4,1.0,asocial
01JW9752CPM09HPW1D7P74C9VB,17,0,4,1.0,0,0,2,0,4,1.0,asocial
01JW9752CPM09HPW1D7P74C9VB,17,1,4,1.0,0,0,8,1,4,1.0,asocial
01JW9752CPM09HPW1D7P74C9VB,17,2,4,1.0,0,0,3,1,4,1.0,asocial
01JW9752CPM09HPW1D7P74C9VB,17,3,4,1.0,4,0,18,4,4,1.0,asocial
01JW9752CPM09HPW1D7P74C9VB,17,4,4,1.0,9,2,98,14,4,1.0,asocial
01JW9752CPM09HPW1D7P74C9VB,17,5,4,1.0,0,0,0,0,4,1.0,asocial
01JW9752CPM09HPW1D7P74C9VB,17,6,4,1.0,0,0,1,0,4,1.0,asocial
01JW9752CPM09HPW1D7P74C9VB,17,7,4,1.0,0,0,2,0,4,1.0,asocial
01JW9752CPM09HPW1D7P74C9VB,17,8,4,1.0,0,0,1,0,4,1.0,asocial
01JW9752CPM09HPW1D7P74C9VB,17,9,4,1.0,0,1,0,1,4,1.0,asocial
01JW9752CPM09HPW1D7P74C9VB,18,0,4,1.0,0,0,2,0,4,1.0,asocial
01JW9752CPM09HPW1D7P74C9VB,18,1,4,1.0,0,0,8,1,4,1.0,asocial
01JW9752CPM09HPW1D7P74C9VB,18,2,4,1.0,0,0,3,1,4,1.0,asocial
01JW9752CPM09HPW1D7P74C9VB,18,3,4,1.0,4,0,19,4,4,1.0,asocial
01JW9752CPM09HPW1D7P74C9VB,18,4,4,1.0,10,2,105,16,4,1.0,asocial
01JW9752CPM09HPW1D7P74C9VB,18,5,4,1.0,0,0,0,0,4,1.0,asocial
01JW9752CPM09HPW1D7P74C9VB,18,6,4,1.0,0,0,1,0,4,1.0,asocial
01JW9752CPM09HPW1D7P74C9VB,18,7,4,1.0,0,0,2,0,4,1.0,asocial
01JW9752CPM09HPW1D7P74C9VB,18,8,4,1.0,0,0,1,0,4,1.0,asocial
01JW9752CPM09HPW1D7P74C9VB,18,9,4,1.0,0,1,0,1,4,1.0,asocial
01JW9752CPM09HPW1D7P74C9VB,19,0,4,1.0,0,0,2,0,4,1.0,asocial
01JW9752CPM09HPW1D7P74C9VB,19,1,4,1.0,0,0,8,1,4,1.0,asocial
01JW9752CPM09HPW1D7P74C9VB,19,2,4,1.0,0,0,3,1,4,1.0,asocial
01JW9752CPM09HPW1D7P74C9VB,19,3,4,1.0,4,0,20,4,4,1.0,asocial
01JW9752CPM09HPW1D7P74C9VB,19,4,4,1.0,11,2,114,16,4,1.0,asocial
01JW9752CPM09HPW1D7P74C9VB,19,5,4,1.0,0,0,0,0,4,1.0,asocial
01JW9752CPM09HPW1D7P74C9VB,19,6,4,1.0,0,0,1,0,4,1.0,asocial
01JW9752CPM09HPW1D7P74C9VB,19,7,4,1.0,0,0,2,0,4,1.0,asocial
01JW9752CPM09HPW1D7P74C9VB,19,8,4,1.0,0,0,1,0,4,1.0,asocial
01JW9752CPM09HPW1D7P74C9VB,19,9,4,1.0,0,1,0,1,4,1.0,asocial
01JW9752CPM09HPW1D7P74C9VB,20,0,4,1.0,0,0,2,0,4,1.0,asocial
01JW9752CPM09HPW1D7P74C9VB,20,1,4,1.0,0,0,8,1,4,1.0,asocial
01JW9752CPM09HPW1D7P74C9VB,20,2,4,1.0,0,0,3,1,4,1.0,asocial
01JW9752CPM09HPW1D7P74C9VB,20,3,4,1.0,4,0,21,4,4,1.0,asocial
01JW9752CPM09HPW1D7P74C9VB,20,4,4,1.0,12,2,123,16,4,1.0,asocial
01JW9752CPM09HPW1D7P74C9VB,20,5,4,1.0,0,0,0,0,4,1.0,asocial
01JW9752CPM09HPW1D7P74C9VB,20,6,4,1.0,0,0,1,0,4,1.0,asocial
01JW9752CPM09HPW1D7P74C9VB,20,7,4,1.0,0,0,2,0,4,1.0,asocial
01JW9752CPM09HPW1D7P74C9VB,20,8,4,1.0,0,0,1,0,4,1.0,asocial
01JW9752CPM09HPW1D7P74C9VB,20,9,4,1.0,0,1,0,1,4,1.0,asocial
01JW9752CPM09HPW1D7P74C9VB,21,0,4,1.0,0,0,2,0,4,1.0,asocial
01JW9752CPM09HPW1D7P74C9VB,21,1,4,1.0,0,0,8,1,4,1.0,asocial
01JW9752CPM09HPW1D7P74C9VB,21,2,4,1.0,0,0,3,1,4,1.0,asocial
01JW9752CPM09HPW1D7P74C9VB,21,3,4,1.0,4,0,21,4,4,1.0,asocial
01JW9752CPM09HPW1D7P74C9VB,21,4,4,1.0,13,2,133,16,4,1.0,asocial
01JW9752CPM09HPW1D7P74C9VB,21,5,4,1.0,0,0,0,0,4,1.0,asocial
01JW9752CPM09HPW1D7P74C9VB,21,6,4,1.0,0,0,1,0,4,1.0,asocial
01JW9752CPM09HPW1D7P74C9VB,21,7,4,1.0,0,0,2,0,4,1.0,asocial
01JW9752CPM09HPW1D7P74C9VB,21,8,4,1.0,0,0,1,0,4,1.0,asocial
01JW9752CPM09HPW1D7P74C9VB,21,9,4,1.0,0,1,0,1,4,1.0,asocial
01JW9752CPM09HPW1D7P74C9VB,22,0,4,1.0,0,0,2,0,4,1.0,asocial
01JW9752CPM09HPW1D7P74C9VB,22,1,4,1.0,0,0,8,1,4,1.0,asocial
01JW9752CPM09HPW1D7P74C9VB,22,2,4,1.0,0,0,3,1,4,1.0,asocial
01JW9752CPM09HPW1D7P74C9VB,22,3,4,1.0,4,0,22,4,4,1.0,asocial
01JW9752CPM09HPW1D7P74C9VB,22,4,4,1.0,14,2,140,18,4,1.0,asocial
01JW9752CPM09HPW1D7P74C9VB,22,5,4,1.0,0,0,0,0,4,1.0,asocial
01JW9752CPM09HPW1D7P74C9VB,22,6,4,1.0,0,0,1,0,4,1.0,asocial
01JW9752CPM09HPW1D7P74C9VB,22,7,4,1.0,0,0,2,0,4,1.0,asocial
01JW9752CPM09HPW1D7P74C9VB,22,8,4,1.0,0,0,1,0,4,1.0,asocial
01JW9752CPM09HPW1D7P74C9VB,22,9,4,1.0,0,1,0,1,4,1.0,asocial
01JW9752CPM09HPW1D7P74C9VB,23,0,4,1.0,0,0,2,0,4,1.0,asocial
01JW9752CPM09HPW1D7P74C9VB,23,1,4,1.0,0,0,8,1,4,1.0,asocial
01JW9752CPM09HPW1D7P74C9VB,23,2,4,1.0,0,0,3,1,4,1.0,asocial
01JW9752CPM09HPW1D7P74C9VB,23,3,4,1.0,4,0,22,4,4,1.0,asocial
01JW9752CPM09HPW1D7P74C9VB,23,4,4,1.0,15,2,150,18,4,1.0,asocial
01JW9752CPM09HPW1D7P74C9VB,23,5,4,1.0,0,0,0,0,4,1.0,asocial
01JW9752CPM09HPW1D7P74C9VB,23,6,4,1.0,0,0,1,0,4,1.0,asocial
01JW9752CPM09HPW1D7P74C9VB,23,7,4,1.0,0,0,2,0,4,1.0,asocial
01JW9752CPM09HPW1D7P74C9VB,23,8,4,1.0,0,0,1,0,4,1.0,asocial
01JW9752CPM09HPW1D7P74C9VB,23,9,4,1.0,0,1,0,1,4,1.0,asocial
01JW9752CPM09HPW1D7P74C9VB,24,0,4,1.0,0,0,2,0,4,1.0,asocial
01JW9752CPM09HPW1D7P74C9VB,24,1,4,1.0,0,0,8,1,4,1.0,asocial
01JW9752CPM09HPW1D7P74C9VB,24,2,4,1.0,0,0,3,1,4,1.0,asocial
01JW9752CPM09HPW1D7P74C9VB,24,3,4,1.0,4,0,22,4,4,1.0,asocial
01JW9752CPM09HPW1D7P74C9VB,24,4,4,1.0,16,2,159,19,4,1.0,asocial
01JW9752CPM09HPW1D7P74C9VB,24,5,4,1.0,0,0,0,0,4,1.0,asocial
01JW9752CPM09HPW1D7P74C9VB,24,6,4,1.0,0,0,1,0,4,1.0,asocial
01JW9752CPM09HPW1D7P74C9VB,24,7,4,1.0,0,0,2,0,4,1.0,asocial
01JW9752CPM09HPW1D7P74C9VB,24,8,4,1.0,0,0,1,0,4,1.0,asocial
01JW9752CPM09HPW1D7P74C9VB,24,9,4,1.0,0,1,0,1,4,1.0,asocial
01JW9752CPM09HPW1D7P74C9VB,25,0,4,1.0,0,0,2,0,4,1.0,asocial
01JW9752CPM09HPW1D7P74C9VB,25,1,4,1.0,0,0,8,1,4,1.0,asocial
01JW9752CPM09HPW1D7P74C9VB,25,2,4,1.0,0,0,3,1,4,1.0,asocial
01JW9752CPM09HPW1D7P74C9VB,25,3,4,1.0,4,0,22,4,4,1.0,asocial
01JW9752CPM09HPW1D7P74C9VB,25,4,4,1.0,17,2,168,20,4,1.0,asocial
01JW9752CPM09HPW1D7P74C9VB,25,5,4,1.0,0,0,0,0,4,1.0,asocial
01JW9752CPM09HPW1D7P74C9VB,25,6,4,1.0,0,0,1,0,4,1.0,asocial
01JW9752CPM09HPW1D7P74C9VB,25,7,4,1.0,0,0,2,0,4,1.0,asocial
01JW9752CPM09HPW1D7P74C9VB,25,8,4,1.0,0,0,1,0,4,1.0,asocial
01JW9752CPM09HPW1D7P74C9VB,25,9,4,1.0,0,1,0,1,4,1.0,asocial
01JW9752CPM09HPW1D7P74C9VB,26,0,4,1.0,0,0,2,0,4,1.0,asocial
01JW9752CPM09HPW1D7P74C9VB,26,1,4,1.0,0,0,8,1,4,1.0,asocial
01JW9752CPM09HPW1D7P74C9VB,26,2,4,1.0,0,0,3,1,4,1.0,asocial
01JW9752CPM09HPW1D7P74C9VB,26,3,4,1.0,4,0,23,4,4,1.0,asocial
01JW9752CPM09HPW1D7P74C9VB,26,4,4,1.0,18,2,176,21,4,1.0,asocial
01JW9752CPM09HPW1D7P74C9VB,26,5,4,1.0,0,0,0,0,4,1.0,asocial
01JW9752CPM09HPW1D7P74C9VB,26,6,4,1.0,0,0,1,0,4,1.0,asocial
01JW9752CPM09HPW1D7P74C9VB,26,7,4,1.0,0,0,2,0,4,1.0,asocial
01JW9752CPM09HPW1D7P74C9VB,26,8,4,1.0,0,0,1,0,4,1.0,asocial
01JW9752CPM09HPW1D7P74C9VB,26,9,4,1.0,0,1,0,1,4,1.0,asocial
01JW9752CPM09HPW1D7P74C9VB,27,0,4,1.0,0,0,2,0,4,1.0,asocial
01JW9752CPM09HPW1D7P74C9VB,27,1,4,1.0,0,0,8,1,4,1.0,asocial
01JW9752CPM09HPW1D7P74C9VB,27,2,4,1.0,0,0,3,1,4,1.0,asocial
01JW9752CPM09HPW1D7P74C9VB,27,3,4,1.0,4,0,23,4,4,1.0,asocial
01JW9752CPM09HPW1D7P74C9VB,27,4,4,1.0,19,2,184,22,4,1.0,asocial
01JW9752CPM09HPW1D7P74C9VB,27,5,4,1.0,0,0,0,0,4,1.0,asocial
01JW9752CPM09HPW1D7P74C9VB,27,6,4,1.0,0,0,1,0,4,1.0,asocial
01JW9752CPM09HPW1D7P74C9VB,27,7,4,1.0,0,0,3,0,4,1.0,asocial
01JW9752CPM09HPW1D7P74C9VB,27,8,4,1.0,0,0,1,0,4,1.0,asocial
01JW9752CPM09HPW1D7P74C9VB,27,9,4,1.0,0,1,0,1,4,1.0,asocial
01JW9752CPM09HPW1D7P74C9VB,28,0,4,1.0,0,0,2,0,4,1.0,asocial
01JW9752CPM09HPW1D7P74C9VB,28,1,4,1.0,0,0,10,1,4,1.0,asocial
01JW9752CPM09HPW1D7P74C9VB,28,2,4,1.0,0,0,3,1,4,1.0,asocial
01JW9752CPM09HPW1D7P74C9VB,28,3,4,1.0,4,0,23,4,4,1.0,asocial
01JW9752CPM09HPW1D7P74C9VB,28,4,4,1.0,20,2,191,23,4,1.0,asocial
01JW9752CPM09HPW1D7P74C9VB,28,5,4,1.0,0,0,0,0,4,1.0,asocial
01JW9752CPM09HPW1D7P74C9VB,28,6,4,1.0,0,0,1,0,4,1.0,asocial
01JW9752CPM09HPW1D7P74C9VB,28,7,4,1.0,0,0,3,0,4,1.0,asocial
01JW9752CPM09HPW1D7P74C9VB,28,8,4,1.0,0,0,1,0,4,1.0,asocial
01JW9752CPM09HPW1D7P74C9VB,28,9,4,1.0,0,1,0,1,4,1.0,asocial
01JW9752CPM09HPW1D7P74C9VB,29,0,4,1.0,0,0,2,0,4,1.0,asocial
01JW9752CPM09HPW1D7P74C9VB,29,1,4,1.0,0,0,11,1,4,1.0,asocial
01JW9752CPM09HPW1D7P74C9VB,29,2,4,1.0,0,0,3,1,4,1.0,asocial
01JW9752CPM09HPW1D7P74C9VB,29,3,4,1.0,4,0,23,4,4,1.0,asocial
01JW9752CPM09HPW1D7P74C9VB,29,4,4,1.0,21,2,200,23,4,1.0,asocial
01JW9752CPM09HPW1D7P74C9VB,29,5,4,1.0,0,0,0,0,4,1.0,asocial
01JW9752CPM09HPW1D7P74C9VB,29,6,4,1.0,0,0,1,0,4,1.0,asocial
01JW9752CPM09HPW1D7P74C9VB,29,7,4,1.0,0,0,3,0,4,1.0,asocial
01JW9752CPM09HPW1D7P74C9VB,29,8,4,1.0,0,0,1,0,4,1.0,asocial
01JW9752CPM09HPW1D7P74C9VB,29,9,4,1.0,0,1,0,1,4,1.0,asocial
01JW9752CPM09HPW1D7P74C9VB,30,0,4,1.0,0,0,2,0,4,1.0,asocial
01JW9752CPM09HPW1D7P74C9VB,30,1,4,1.0,0,0,12,1,4,1.0,asocial
01JW9752CPM09HPW1D7P74C9VB,30,2,4,1.0,0,0,3,1,4,1.0,asocial
01JW9752CPM09HPW1D7P74C9VB,30,3,4,1.0,4,0,23,4,4,1.0,asocial
01JW9752CPM09HPW1D7P74C9VB,30,4,4,1.0,22,2,207,25,4,1.0,asocial
01JW9752CPM09HPW1D7P74C9VB,30,5,4,1.0,0,0,0,0,4,1.0,asocial
01JW9752CPM09HPW1D7P74C9VB,30,6,4,1.0,0,0,1,0,4,1.0,asocial
01JW9752CPM09HPW1D7P74C9VB,30,7,4,1.0,0,0,3,0,4,1.0,asocial
01JW9752CPM09HPW1D7P74C9VB,30,8,4,1.0,0,0,1,0,4,1.0,asocial
01JW9752CPM09HPW1D7P74C9VB,30,9,4,1.0,0,1,0,1,4,1.0,asocial
01JW9752CPM09HPW1D7P74C9VB,31,0,4,1.0,0,0,2,0,4,1.0,asocial
01JW9752CPM09HPW1D7P74C9VB,31,1,4,1.0,0,0,13,1,4,1.0,asocial
01JW9752CPM09HPW1D7P74C9VB,31,2,4,1.0,0,0,3,1,4,1.0,asocial
01JW9752CPM09HPW1D7P74C9VB,31,3,4,1.0,4,0,23,4,4,1.0,asocial
01JW9752CPM09HPW1D7P74C9VB,31,4,4,1.0,23,2,213,28,4,1.0,asocial
01JW9752CPM09HPW1D7P74C9VB,31,5,4,1.0,0,0,0,0,4,1.0,asocial
01JW9752CPM09HPW1D7P74C9VB,31,6,4,1.0,0,0,1,0,4,1.0,asocial
01JW9752CPM09HPW1D7P74C9VB,31,7,4,1.0,0,0,3,0,4,1.0,asocial
01JW9752CPM09HPW1D7P74C9VB,31,8,4,1.0,0,0,1,0,4,1.0,asocial
01JW9752CPM09HPW1D7P74C9VB,31,9,4,1.0,0,1,0,1,4,1.0,asocial
01JW9752CPM09HPW1D7P74C9VB,32,0,4,1.0,0,0,2,0,4,1.0,asocial
01JW9752CPM09HPW1D7P74C9VB,32,1,4,1.0,0,0,13,1,4,1.0,asocial
01JW9752CPM09HPW1D7P74C9VB,32,2,4,1.0,0,0,3,1,4,1.0,asocial
01JW9752CPM09HPW1D7P74C9VB,32,3,4,1.0,4,0,23,4,4,1.0,asocial
01JW9752CPM09HPW1D7P74C9VB,32,4,4,1.0,24,2,221,30,4,1.0,asocial
01JW9752CPM09HPW1D7P74C9VB,32,5,4,1.0,0,0,0,0,4,1.0,asocial
01JW9752CPM09HPW1D7P74C9VB,32,6,4,1.0,0,0,1,0,4,1.0,asocial
01JW9752CPM09HPW1D7P74C9VB,32,7,4,1.0,0,0,3,0,4,1.0,asocial
01JW9752CPM09HPW1D7P74C9VB,32,8,4,1.0,0,0,1,0,4,1.0,asocial
01JW9752CPM09HPW1D7P74C9VB,32,9,4,1.0,0,1,0,1,4,1.0,asocial
01JW9752CPM09HPW1D7P74C9VB,33,0,4,1.0,0,0,2,0,4,1.0,asocial
01JW9752CPM09HPW1D7P74C9VB,33,1,4,1.0,0,0,14,2,4,1.0,asocial
01JW9752CPM09HPW1D7P74C9VB,33,2,4,1.0,0,0,3,1,4,1.0,asocial
01JW9752CPM09HPW1D7P74C9VB,33,3,4,1.0,4,0,23,4,4,1.0,asocial
01JW9752CPM09HPW1D7P74C9VB,33,4,4,1.0,25,2,228,31,4,1.0,asocial
01JW9752CPM09HPW1D7P74C9VB,33,5,4,1.0,0,0,0,0,4,1.0,asocial
01JW9752CPM09HPW1D7P74C9VB,33,6,4,1.0,0,0,1,0,4,1.0,asocial
01JW9752CPM09HPW1D7P74C9VB,33,7,4,1.0,0,0,3,0,4,1.0,asocial
01JW9752CPM09HPW1D7P74C9VB,33,8,4,1.0,0,0,1,0,4,1.0,asocial
01JW9752CPM09HPW1D7P74C9VB,33,9,4,1.0,0,1,0,1,4,1.0,asocial
01JW9752CPM09HPW1D7P74C9VB,34,0,4,1.0,0,0,2,0,4,1.0,asocial
01JW9752CPM09HPW1D7P74C9VB,34,1,4,1.0,0,0,14,2,4,1.0,asocial
01JW9752CPM09HPW1D7P74C9VB,34,2,4,1.0,0,0,3,1,4,1.0,asocial
01JW9752CPM09HPW1D7P74C9VB,34,3,4,1.0,4,0,23,4,4,1.0,asocial
01JW9752CPM09HPW1D7P74C9VB,34,4,4,1.0,26,2,238,31,4,1.0,asocial
01JW9752CPM09HPW1D7P74C9VB,34,5,4,1.0,0,0,0,0,4,1.0,asocial
01JW9752CPM09HPW1D7P74C9VB,34,6,4,1.0,0,0,1,0,4,1.0,asocial
01JW9752CPM09HPW1D7P74C9VB,34,7,4,1.0,0,0,3,0,4,1.0,asocial
01JW9752CPM09HPW1D7P74C9VB,34,8,4,1.0,0,0,1,0,4,1.0,asocial
01JW9752CPM09HPW1D7P74C9VB,34,9,4,1.0,0,1,0,1,4,1.0,asocial
01JW9752CPM09HPW1D7P74C9VB,35,0,4,1.0,0,0,2,0,4,1.0,asocial
01JW9752CPM09HPW1D7P74C9VB,35,1,4,1.0,0,0,14,2,4,1.0,asocial
01JW9752CPM09HPW1D7P74C9VB,35,2,4,1.0,0,0,3,1,4,1.0,asocial
01JW9752CPM09HPW1D7P74C9VB,35,3,4,1.0,4,0,23,4,4,1.0,asocial
01JW9752CPM09HPW1D7P74C9VB,35,4,4,1.0,27,2,247,32,4,1.0,asocial
01JW9752CPM09HPW1D7P74C9VB,35,5,4,1.0,0,0,0,0,4,1.0,asocial
01JW9752CPM09HPW1D7P74C9VB,35,6,4,1.0,0,0,1,0,4,1.0,asocial
01JW9752CPM09HPW1D7P74C9VB,35,7,4,1.0,0,0,3,0,4,1.0,asocial
01JW9752CPM09HPW1D7P74C9VB,35,8,4,1.0,0,0,1,0,4,1.0,asocial
01JW9752CPM09HPW1D7P74C9VB,35,9,4,1.0,0,1,0,1,4,1.0,asocial
01JW9752CPM09HPW1D7P74C9VB,36,0,4,1.0,0,0,2,0,4,1.0,asocial
01JW9752CPM09HPW1D7P74C9VB,36,1,4,1.0,0,0,15,2,4,1.0,asocial
01JW9752CPM09HPW1D7P74C9VB,36,2,4,1.0,0,0,3,1,4,1.0,asocial
01JW9752CPM09HPW1D7P74C9VB,36,3,4,1.0,4,0,23,4,4,1.0,asocial
01JW9752CPM09HPW1D7P74C9VB,36,4,4,1.0,28,2,254,34,4,1.0,asocial
01JW9752CPM09HPW1D7P74C9VB,36,5,4,1.0,0,0,0,0,4,1.0,asocial
01JW9752CPM09HPW1D7P74C9VB,36,6,4,1.0,0,0,1,0,4,1.0,asocial
01JW9752CPM09HPW1D7P74C9VB,36,7,4,1.0,0,0,3,0,4,1.0,asocial
01JW9752CPM09HPW1D7P74C9VB,36,8,4,1.0,0,0,1,0,4,1.0,asocial
01JW9752CPM09HPW1D7P74C9VB,36,9,4,1.0,0,1,0,1,4,1.0,asocial
01JW9752CPM09HPW1D7P74C9VB,37,0,4,1.0,0,0,2,0,4,1.0,asocial
01JW9752CPM09HPW1D7P74C9VB,37,1,4,1.0,0,0,16,2,4,1.0,asocial
01JW9752CPM09HPW1D7P74C9VB,37,2,4,1.0,0,0,3,1,4,1.0,asocial
01JW9752CPM09HPW1D7P74C9VB,37,3,4,1.0,4,0,23,4,4,1.0,asocial
01JW9752CPM09HPW1D7P74C9VB,37,4,4,1.0,29,2,261,36,4,1.0,asocial
01JW9752CPM09HPW1D7P74C9VB,37,5,4,1.0,0,0,0,0,4,1.0,asocial
01JW9752CPM09HPW1D7P74C9VB,37,6,4,1.0,0,0,1,0,4,1.0,asocial
01JW9752CPM09HPW1D7P74C9VB,37,7,4,1.0,0,0,3,0,4,1.0,asocial
01JW9752CPM09HPW1D7P74C9VB,37,8,4,1.0,0,0,1,0,4,1.0,asocial
01JW9752CPM09HPW1D7P74C9VB,37,9,4,1.0,0,1,0,1,4,1.0,asocial
01JW9752CPM09HPW1D7P74C9VB,38,0,4,1.0,0,0,2,0,4,1.0,asocial
01JW9752CPM09HPW1D7P74C9VB,38,1,4,1.0,0,0,17,2,4,1.0,asocial
01JW9752CPM09HPW1D7P74C9VB,38,2,4,1.0,0,0,3,1,4,1.0,asocial
01JW9752CPM09HPW1D7P74C9VB,38,3,4,1.0,4,0,23,4,4,1.0,asocial
01JW9752CPM09HPW1D7P74C9VB,38,4,4,1.0,30,2,269,37,4,1.0,asocial
01JW9752CPM09HPW1D7P74C9VB,38,5,4,1.0,0,0,0,0,4,1.0,asocial
01JW9752CPM09HPW1D7P74C9VB,38,6,4,1.0,0,0,1,0,4,1.0,asocial
01JW9752CPM09HPW1D7P74C9VB,38,7,4,1.0,0,0,3,0,4,1.0,asocial
01JW9752CPM09HPW1D7P74C9VB,38,8,4,1.0,0,0,1,0,4,1.0,asocial
01JW9752CPM09HPW1D7P74C9VB,38,9,4,1.0,0,1,0,1,4,1.0,asocial
01JW9752CPM09HPW1D7P74C9VB,39,0,4,1.0,0,0,2,0,4,1.0,asocial
01JW9752CPM09HPW1D7P74C9VB,39,1,4,1.0,0,0,17,2,4,1.0,asocial
01JW9752CPM09HPW1D7P74C9VB,39,2,4,1.0,0,0,3,1,4,1.0,asocial
01JW9752CPM09HPW1D7P74C9VB,39,3,4,1.0,4,0,23,4,4,1.0,asocial
01JW9752CPM09HPW1D7P74C9VB,39,4,4,1.0,31,2,279,37,4,1.0,asocial
01JW9752CPM09HPW1D7P74C9VB,39,5,4,1.0,0,0,0,0,4,1.0,asocial
01JW9752CPM09HPW1D7P74C9VB,39,6,4,1.0,0,0,1,0,4,1.0,asocial
01JW9752CPM09HPW1D7P74C9VB,39,7,4,1.0,0,0,3,0,4,1.0,asocial
01JW9752CPM09HPW1D7P74C9VB,39,8,4,1.0,0,0,1,0,4,1.0,asocial
01JW9752CPM09HPW1D7P74C9VB,39,9,4,1.0,0,1,0,1,4,1.0,asocial
01JW9752CPM09HPW1D7P74C9VB,40,0,4,1.0,0,0,2,0,4,1.0,asocial
01JW9752CPM09HPW1D7P74C9VB,40,1,4,1.0,0,0,17,3,4,1.0,asocial
01JW9752CPM09HPW1D7P74C9VB,40,2,4,1.0,0,0,3,1,4,1.0,asocial
01JW9752CPM09HPW1D7P74C9VB,40,3,4,1.0,4,0,24,4,4,1.0,asocial
01JW9752CPM09HPW1D7P74C9VB,40,4,4,1.0,32,2,287,37,4,1.0,asocial
01JW9752CPM09HPW1D7P74C9VB,40,5,4,1.0,0,0,0,0,4,1.0,asocial
01JW9752CPM09HPW1D7P74C9VB,40,6,4,1.0,0,0,1,0,4,1.0,asocial
01JW9752CPM09HPW1D7P74C9VB,40,7,4,1.0,0,0,3,0,4,1.0,asocial
01JW9752CPM09HPW1D7P74C9VB,40,8,4,1.0,0,0,1,0,4,1.0,asocial
01JW9752CPM09HPW1D7P74C9VB,40,9,4,1.0,0,1,0,1,4,1.0,asocial
01JW9752CPM09HPW1D7P74C9VB,41,0,4,1.0,0,0,2,0,4,1.0,asocial
01JW9752CPM09HPW1D7P74C9VB,41,1,4,1.0,0,0,17,3,4,1.0,asocial
01JW9752CPM09HPW1D7P74C9VB,41,2,4,1.0,0,0,3,1,4,1.0,asocial
01JW9752CPM09HPW1D7P74C9VB,41,3,4,1.0,4,0,24,5,4,1.0,asocial
01JW9752CPM09HPW1D7P74C9VB,41,4,4,1.0,33,2,296,37,4,1.0,asocial
01JW9752CPM09HPW1D7P74C9VB,41,5,4,1.0,0,0,0,0,4,1.0,asocial
01JW9752CPM09HPW1D7P74C9VB,41,6,4,1.0,0,0,1,0,4,1.0,asocial
01JW9752CPM09HPW1D7P74C9VB,41,7,4,1.0,0,0,3,0,4,1.0,asocial
01JW9752CPM09HPW1D7P74C9VB,41,8,4,1.0,0,0,1,0,4,1.0,asocial
01JW9752CPM09HPW1D7P74C9VB,41,9,4,1.0,0,1,0,1,4,1.0,asocial
01JW9752CPM09HPW1D7P74C9VB,42,0,4,1.0,0,0,2,0,4,1.0,asocial
01JW9752CPM09HPW1D7P74C9VB,42,1,4,1.0,0,0,17,3,4,1.0,asocial
01JW9752CPM09HPW1D7P74C9VB,42,2,4,1.0,0,0,3,1,4,1.0,asocial
01JW9752CPM09HPW1D7P74C9VB,42,3,4,1.0,4,0,24,5,4,1.0,asocial
01JW9752CPM09HPW1D7P74C9VB,42,4,4,1.0,34,2,305,37,4,1.0,asocial
01JW9752CPM09HPW1D7P74C9VB,42,5,4,1.0,0,0,0,0,4,1.0,asocial
01JW9752CPM09HPW1D7P74C9VB,42,6,4,1.0,0,0,1,0,4,1.0,asocial
01JW9752CPM09HPW1D7P74C9VB,42,7,4,1.0,0,0,3,0,4,1.0,asocial
01JW9752CPM09HPW1D7P74C9VB,42,8,4,1.0,0,0,1,0,4,1.0,asocial
01JW9752CPM09HPW1D7P74C9VB,42,9,4,1.0,0,1,0,1,4,1.0,asocial
01JW9752CPM09HPW1D7P74C9VB,43,0,4,1.0,0,0,2,0,4,1.0,asocial
01JW9752CPM09HPW1D7P74C9VB,43,1,4,1.0,0,0,17,4,4,1.0,asocial
01JW9752CPM09HPW1D7P74C9VB,43,2,4,1.0,0,0,3,1,4,1.0,asocial
01JW9752CPM09HPW1D7P74C9VB,43,3,4,1.0,4,0,24,5,4,1.0,asocial
01JW9752CPM09HPW1D7P74C9VB,43,4,4,1.0,35,2,314,37,4,1.0,asocial
01JW9752CPM09HPW1D7P74C9VB,43,5,4,1.0,0,0,0,0,4,1.0,asocial
01JW9752CPM09HPW1D7P74C9VB,43,6,4,1.0,0,0,1,0,4,1.0,asocial
01JW9752CPM09HPW1D7P74C9VB,43,7,4,1.0,0,0,3,0,4,1.0,asocial
01JW9752CPM09HPW1D7P74C9VB,43,8,4,1.0,0,0,1,0,4,1.0,asocial
01JW9752CPM09HPW1D7P74C9VB,43,9,4,1.0,0,1,0,1,4,1.0,asocial
01JW9752CPM09HPW1D7P74C9VB,44,0,4,1.0,0,0,2,0,4,1.0,asocial
01JW9752CPM09HPW1D7P74C9VB,44,1,4,1.0,0,0,17,4,4,1.0,asocial
01JW9752CPM09HPW1D7P74C9VB,44,2,4,1.0,0,0,3,1,4,1.0,asocial
01JW9752CPM09HPW1D7P74C9VB,44,3,4,1.0,4,0,24,5,4,1.0,asocial
01JW9752CPM09HPW1D7P74C9VB,44,4,4,1.0,36,2,321,38,4,1.0,asocial
01JW9752CPM09HPW1D7P74C9VB,44,5,4,1.0,0,0,0,0,4,1.0,asocial
01JW9752CPM09HPW1D7P74C9VB,44,6,4,1.0,0,0,1,0,4,1.0,asocial
01JW9752CPM09HPW1D7P74C9VB,44,7,4,1.0,0,0,4,0,4,1.0,asocial
01JW9752CPM09HPW1D7P74C9VB,44,8,4,1.0,0,0,1,0,4,1.0,asocial
01JW9752CPM09HPW1D7P74C9VB,44,9,4,1.0,0,1,0,1,4,1.0,asocial
01JW9752CPM09HPW1D7P74C9VB,45,0,4,1.0,0,0,2,0,4,1.0,asocial
01JW9752CPM09HPW1D7P74C9VB,45,1,4,1.0,0,0,18,4,4,1.0,asocial
01JW9752CPM09HPW1D7P74C9VB,45,2,4,1.0,0,0,3,1,4,1.0,asocial
01JW9752CPM09HPW1D7P74C9VB,45,3,4,1.0,4,0,24,5,4,1.0,asocial
01JW9752CPM09HPW1D7P74C9VB,45,4,4,1.0,37,2,328,40,4,1.0,asocial
01JW9752CPM09HPW1D7P74C9VB,45,5,4,1.0,0,0,0,0,4,1.0,asocial
01JW9752CPM09HPW1D7P74C9VB,45,6,4,1.0,0,0,1,0,4,1.0,asocial
01JW9752CPM09HPW1D7P74C9VB,45,7,4,1.0,0,0,4,0,4,1.0,asocial
01JW9752CPM09HPW1D7P74C9VB,45,8,4,1.0,0,0,1,0,4,1.0,asocial
01JW9752CPM09HPW1D7P74C9VB,45,9,4,1.0,0,1,0,1,4,1.0,asocial
01JW9752CPM09HPW1D7P74C9VB,46,0,4,1.0,0,0,2,0,4,1.0,asocial
01JW9752CPM09HPW1D7P74C9VB,46,1,4,1.0,0,0,18,4,4,1.0,asocial
01JW9752CPM09HPW1D7P74C9VB,46,2,4,1.0,0,0,3,1,4,1.0,asocial
01JW9752CPM09HPW1D7P74C9VB,46,3,4,1.0,4,0,24,5,4,1.0,asocial
01JW9752CPM09HPW1D7P74C9VB,46,4,4,1.0,38,2,338,40,4,1.0,asocial
01JW9752CPM09HPW1D7P74C9VB,46,5,4,1.0,0,0,0,0,4,1.0,asocial
01JW9752CPM09HPW1D7P74C9VB,46,6,4,1.0,0,0,1,0,4,1.0,asocial
01JW9752CPM09HPW1D7P74C9VB,46,7,4,1.0,0,0,4,0,4,1.0,asocial
01JW9752CPM09HPW1D7P74C9VB,46,8,4,1.0,0,0,1,0,4,1.0,asocial
01JW9752CPM09HPW1D7P74C9VB,46,9,4,1.0,0,1,0,1,4,1.0,asocial
01JW9752CPM09HPW1D7P74C9VB,47,0,4,1.0,0,0,2,0,4,1.0,asocial
01JW9752CPM09HPW1D7P74C9VB,47,1,4,1.0,0,0,18,4,4,1.0,asocial
01JW9752CPM09HPW1D7P74C9VB,47,2,4,1.0,0,0,3,1,4,1.0,asocial
01JW9752CPM09HPW1D7P74C9VB,47,3,4,1.0,4,0,24,5,4,1.0,asocial
01JW9752CPM09HPW1D7P74C9VB,47,4,4,1.0,39,2,347,41,4,1.0,asocial
01JW9752CPM09HPW1D7P74C9VB,47,5,4,1.0,0,0,0,0,4,1.0,asocial
01JW9752CPM09HPW1D7P74C9VB,47,6,4,1.0,0,0,1,0,4,1.0,asocial
01JW9752CPM09HPW1D7P74C9VB,47,7,4,1.0,0,0,4,0,4,1.0,asocial
01JW9752CPM09HPW1D7P74C9VB,47,8,4,1.0,0,0,1,0,4,1.0,asocial
01JW9752CPM09HPW1D7P74C9VB,47,9,4,1.0,0,1,0,1,4,1.0,asocial
01JW9752CPM09HPW1D7P74C9VB,48,0,4,1.0,0,0,2,0,4,1.0,asocial
01JW9752CPM09HPW1D7P74C9VB,48,1,4,1.0,0,0,18,4,4,1.0,asocial
01JW9752CPM09HPW1D7P74C9VB,48,2,4,1.0,0,0,3,1,4,1.0,asocial
01JW9752CPM09HPW1D7P74C9VB,48,3,4,1.0,4,0,25,5,4,1.0,asocial
01JW9752CPM09HPW1D7P74C9VB,48,4,4,1.0,40,2,353,44,4,1.0,asocial
01JW9752CPM09HPW1D7P74C9VB,48,5,4,1.0,0,0,0,0,4,1.0,asocial
01JW9752CPM09HPW1D7P74C9VB,48,6,4,1.0,0,0,1,0,4,1.0,asocial
01JW9752CPM09HPW1D7P74C9VB,48,7,4,1.0,0,0,4,0,4,1.0,asocial
01JW9752CPM09HPW1D7P74C9VB,48,8,4,1.0,0,0,1,0,4,1.0,asocial
01JW9752CPM09HPW1D7P74C9VB,48,9,4,1.0,0,1,0,1,4,1.0,asocial
01JW9752CPM09HPW1D7P74C9VB,49,0,4,1.0,0,0,2,0,4,1.0,asocial
01JW9752CPM09HPW1D7P74C9VB,49,1,4,1.0,0,0,18,4,4,1.0,asocial
01JW9752CPM09HPW1D7P74C9VB,49,2,4,1.0,0,0,3,1,4,1.0,asocial
01JW9752CPM09HPW1D7P74C9VB,49,3,4,1.0,4,0,26,5,4,1.0,asocial
01JW9752CPM09HPW1D7P74C9VB,49,4,4,1.0,41,2,361,45,4,1.0,asocial
01JW9752CPM09HPW1D7P74C9VB,49,5,4,1.0,0,0,0,0,4,1.0,asocial
01JW9752CPM09HPW1D7P74C9VB,49,6,4,1.0,0,0,1,0,4,1.0,asocial
01JW9752CPM09HPW1D7P74C9VB,49,7,4,1.0,0,0,4,0,4,1.0,asocial
01JW9752CPM09HPW1D7P74C9VB,49,8,4,1.0,0,0,1,0,4,1.0,asocial
01JW9752CPM09HPW1D7P74C9VB,49,9,4,1.0,0,1,0,1,4,1.0,asocial
01JW9752CPM09HPW1D7P74C9VB,50,0,4,1.0,0,0,2,0,4,1.0,asocial
01JW9752CPM09HPW1D7P74C9VB,50,1,4,1.0,0,0,18,4,4,1.0,asocial
01JW9752CPM09HPW1D7P74C9VB,50,2,4,1.0,0,0,3,1,4,1.0,asocial
01JW9752CPM09HPW1D7P74C9VB,50,3,4,1.0,4,0,26,5,4,1.0,asocial
01JW9752CPM09HPW1D7P74C9VB,50,4,4,1.0,42,2,369,46,4,1.0,asocial
01JW9752CPM09HPW1D7P74C9VB,50,5,4,1.0,0,0,0,0,4,1.0,asocial
01JW9752CPM09HPW1D7P74C9VB,50,6,4,1.0,0,0,1,0,4,1.0,asocial
01JW9752CPM09HPW1D7P74C9VB,50,7,4,1.0,0,0,5,0,4,1.0,asocial
01JW9752CPM09HPW1D7P74C9VB,50,8,4,1.0,0,0,1,0,4,1.0,asocial
01JW9752CPM09HPW1D7P74C9VB,50,9,4,1.0,0,1,0,1,4,1.0,asocial
01JW9752CPM09HPW1D7P74C9VB,51,0,4,1.0,0,0,2,0,4,1.0,asocial
01JW9752CPM09HPW1D7P74C9VB,51,1,4,1.0,0,0,18,4,4,1.0,asocial
01JW9752CPM09HPW1D7P74C9VB,51,2,4,1.0,0,0,3,1,4,1.0,asocial
01JW9752CPM09HPW1D7P74C9VB,51,3,4,1.0,4,0,26,5,4,1.0,asocial
01JW9752CPM09HPW1D7P74C9VB,51,4,4,1.0,43,2,378,46,4,1.0,asocial
01JW9752CPM09HPW1D7P74C9VB,51,5,4,1.0,0,0,0,0,4,1.0,asocial
01JW9752CPM09HPW1D7P74C9VB,51,6,4,1.0,0,0,1,0,4,1.0,asocial
01JW9752CPM09HPW1D7P74C9VB,51,7,4,1.0,0,0,6,0,4,1.0,asocial
01JW9752CPM09HPW1D7P74C9VB,51,8,4,1.0,0,0,1,0,4,1.0,asocial
01JW9752CPM09HPW1D7P74C9VB,51,9,4,1.0,0,1,0,1,4,1.0,asocial
01JW9753GREBH8Q1H278C6P42E,1,0,8,1.0,0,0,0,0,-1,,asocial
01JW9753GREBH8Q1H278C6P42E,1,1,8,1.0,0,0,0,0,-1,,asocial
01JW9753GREBH8Q1H278C6P42E,1,2,8,1.0,0,0,0,0,-1,,asocial
01JW9753GREBH8Q1H278C6P42E,1,3,8,1.0,0,0,0,0,-1,,asocial
01JW9753GREBH8Q1H278C6P42E,1,4,8,1.0,0,0,0,0,-1,,asocial
01JW9753GREBH8Q1H278C6P42E,1,5,8,1.0,0,0,0,0,-1,,asocial
01JW9753GREBH8Q1H278C6P42E,1,6,8,1.0,0,0,0,0,-1,,asocial
01JW9753GREBH8Q1H278C6P42E,1,7,8,1.0,0,0,0,0,-1,,asocial
01JW9753GREBH8Q1H278C6P42E,1,8,8,1.0,0,0,0,0,-1,,asocial
01JW9753GREBH8Q1H278C6P42E,1,9,8,1.0,0,0,0,0,-1,,asocial
01JW9753GREBH8Q1H278C6P42E,2,0,1,1.0,0,0,1,0,8,1.0,asocial
01JW9753GREBH8Q1H278C6P42E,2,1,1,1.0,0,0,1,0,8,1.0,asocial
01JW9753GREBH8Q1H278C6P42E,2,2,1,1.0,0,0,1,0,8,1.0,asocial
01JW9753GREBH8Q1H278C6P42E,2,3,1,1.0,0,0,1,0,8,1.0,asocial
01JW9753GREBH8Q1H278C6P42E,2,4,1,1.0,0,0,1,0,8,1.0,asocial
01JW9753GREBH8Q1H278C6P42E,2,5,1,1.0,0,0,0,0,8,1.0,asocial
01JW9753GREBH8Q1H278C6P42E,2,6,1,1.0,0,0,1,0,8,1.0,asocial
01JW9753GREBH8Q1H278C6P42E,2,7,1,1.0,0,0,1,0,8,1.0,asocial
01JW9753GREBH8Q1H278C6P42E,2,8,1,1.0,1,0,1,0,8,1.0,asocial
01JW9753GREBH8Q1H278C6P42E,2,9,1,1.0,0,0,0,1,8,1.0,asocial
01JW9753GREBH8Q1H278C6P42E,3,0,1,1.0,0,0,2,0,1,1.0,asocial
01JW9753GREBH8Q1H278C6P42E,3,1,1,1.0,1,0,2,0,1,1.0,asocial
01JW9753GREBH8Q1H278C6P42E,3,2,1,1.0,0,0,3,1,1,1.0,asocial
01JW9753GREBH8Q1H278C6P42E,3,3,1,1.0,0,0,2,0,1,1.0,asocial
01JW9753GREBH8Q1H278C6P42E,3,4,1,1.0,0,0,3,0,1,1.0,asocial
01JW9753GREBH8Q1H278C6P42E,3,5,1,1.0,0,0,0,0,1,1.0,asocial
01JW9753GREBH8Q1H278C6P42E,3,6,1,1.0,0,0,1,0,1,1.0,asocial
01JW9753GREBH8Q1H278C6P42E,3,7,1,1.0,0,0,2,0,1,1.0,asocial
01JW9753GREBH8Q1H278C6P42E,3,8,1,1.0,1,0,1,0,1,1.0,asocial
01JW9753GREBH8Q1H278C6P42E,3,9,1,1.0,0,0,0,1,1,1.0,asocial
01JW9753GREBH8Q1H278C6P42E,4,0,1,1.0,0,0,2,0,1,1.0,asocial
01JW9753GREBH8Q1H278C6P42E,4,1,1,1.0,2,0,3,0,1,1.0,asocial
01JW9753GREBH8Q1H278C6P42E,4,2,1,1.0,0,0,3,1,1,1.0,asocial
01JW9753GREBH8Q1H278C6P42E,4,3,1,1.0,0,0,3,0,1,1.0,asocial
01JW9753GREBH8Q1H278C6P42E,4,4,1,1.0,0,0,9,2,1,1.0,asocial
01JW9753GREBH8Q1H278C6P42E,4,5,1,1.0,0,0,0,0,1,1.0,asocial
01JW9753GREBH8Q1H278C6P42E,4,6,1,1.0,0,0,1,0,1,1.0,asocial
01JW9753GREBH8Q1H278C6P42E,4,7,1,1.0,0,0,2,0,1,1.0,asocial
01JW9753GREBH8Q1H278C6P42E,4,8,1,1.0,1,0,1,0,1,1.0,asocial
01JW9753GREBH8Q1H278C6P42E,4,9,1,1.0,0,0,0,1,1,1.0,asocial
01JW9753GREBH8Q1H278C6P42E,8,0,1,1.0,0,0,2,0,-1,,asocial
01JW9753GREBH8Q1H278C6P42E,8,1,1,1.0,3,0,5,1,-1,,asocial
01JW9753GREBH8Q1H278C6P42E,8,2,1,1.0,0,0,3,1,-1,,asocial
01JW9753GREBH8Q1H278C6P42E,8,3,1,1.0,0,0,12,0,-1,,asocial
01JW9753GREBH8Q1H278C6P42E,8,4,1,1.0,0,0,31,5,-1,,asocial
01JW9753GREBH8Q1H278C6P42E,8,5,1,1.0,0,0,0,0,-1,,asocial
01JW9753GREBH8Q1H278C6P42E,8,6,1,1.0,0,0,1,0,-1,,asocial
01JW9753GREBH8Q1H278C6P42E,8,7,1,1.0,0,0,2,0,-1,,asocial
01JW9753GREBH8Q1H278C6P42E,8,8,1,1.0,1,0,1,0,-1,,asocial
01JW9753GREBH8Q1H278C6P42E,8,9,1,1.0,0,0,0,1,-1,,asocial
01JW9753GREBH8Q1H278C6P42E,9,0,4,1.0,0,0,2,0,1,1.0,asocial
01JW9753GREBH8Q1H278C6P42E,9,1,4,1.0,4,0,6,1,1,1.0,asocial
01JW9753GREBH8Q1H278C6P42E,9,2,4,1.0,0,0,3,1,1,1.0,asocial
01JW9753GREBH8Q1H278C6P42E,9,3,4,1.0,0,0,15,2,1,1.0,asocial
01JW9753GREBH8Q1H278C6P42E,9,4,4,1.0,0,0,34,6,1,1.0,asocial
01JW9753GREBH8Q1H278C6P42E,9,5,4,1.0,0,0,0,0,1,1.0,asocial
01JW9753GREBH8Q1H278C6P42E,9,6,4,1.0,0,0,1,0,1,1.0,asocial
01JW9753GREBH8Q1H278C6P42E,9,7,4,1.0,0,0,2,0,1,1.0,asocial
01JW9753GREBH8Q1H278C6P42E,9,8,4,1.0,1,0,1,0,1,1.0,asocial
01JW9753GREBH8Q1H278C6P42E,9,9,4,1.0,0,0,0,1,1,1.0,asocial
01JW9753GREBH8Q1H278C6P42E,10,0,4,1.0,0,0,2,0,4,1.0,asocial
01JW9753GREBH8Q1H278C6P42E,10,1,4,1.0,4,0,7,1,4,1.0,asocial
01JW9753GREBH8Q1H278C6P42E,10,2,4,1.0,0,0,3,1,4,1.0,asocial
01JW9753GREBH8Q1H278C6P42E,10,3,4,1.0,0,0,18,2,4,1.0,asocial
01JW9753GREBH8Q1H278C6P42E,10,4,4,1.0,1,0,40,6,4,1.0,asocial
01JW9753GREBH8Q1H278C6P42E,10,5,4,1.0,0,0,0,0,4,1.0,asocial
01JW9753GREBH8Q1H278C6P42E,10,6,4,1.0,0,0,1,0,4,1.0,asocial
01JW9753GREBH8Q1H278C6P42E,10,7,4,1.0,0,0,2,0,4,1.0,asocial
01JW9753GREBH8Q1H278C6P42E,10,8,4,1.0,1,0,1,0,4,1.0,asocial
01JW9753GREBH8Q1H278C6P42E,10,9,4,1.0,0,0,0,1,4,1.0,asocial
01JW9753GREBH8Q1H278C6P42E,12,0,4,1.0,0,0,2,0,-1,,asocial
01JW9753GREBH8Q1H278C6P42E,12,1,4,1.0,4,0,7,1,-1,,asocial
01JW9753GREBH8Q1H278C6P42E,12,2,4,1.0,0,0,3,1,-1,,asocial
01JW9753GREBH8Q1H278C6P42E,12,3,4,1.0,0,0,18,4,-1,,asocial
01JW9753GREBH8Q1H278C6P42E,12,4,4,1.0,2,0,55,8,-1,,asocial
01JW9753GREBH8Q1H278C6P42E,12,5,4,1.0,0,0,0,0,-1,,asocial
01JW9753GREBH8Q1H278C6P42E,12,6,4,1.0,0,0,1,0,-1,,asocial
01JW9753GREBH8Q1H278C6P42E,12,7,4,1.0,0,0,2,0,-1,,asocial
01JW9753GREBH8Q1H278C6P42E,12,8,4,1.0,1,0,1,0,-1,,asocial
01JW9753GREBH8Q1H278C6P42E,12,9,4,1.0,0,0,0,1,-1,,asocial
01JW9753GREBH8Q1H278C6P42E,13,0,4,1.0,0,0,2,0,4,1.0,asocial
01JW9753GREBH8Q1H278C6P42E,13,1,4,1.0,4,0,7,1,4,1.0,asocial
01JW9753GREBH8Q1H278C6P42E,13,2,4,1.0,0,0,3,1,4,1.0,asocial
01JW9753GREBH8Q1H278C6P42E,13,3,4,1.0,0,0,18,4,4,1.0,asocial
01JW9753GREBH8Q1H278C6P42E,13,4,4,1.0,3,0,63,10,4,1.0,asocial
01JW9753GREBH8Q1H278C6P42E,13,5,4,1.0,0,0,0,0,4,1.0,asocial
01JW9753GREBH8Q1H278C6P42E,13,6,4,1.0,0,0,1,0,4,1.0,asocial
01JW9753GREBH8Q1H278C6P42E,13,7,4,1.0,0,0,2,0,4,1.0,asocial
01JW9753GREBH8Q1H278C6P42E,13,8,4,1.0,1,0,1,0,4,1.0,asocial
01JW9753GREBH8Q1H278C6P42E,13,9,4,1.0,0,0,0,1,4,1.0,asocial
01JW9753GREBH8Q1H278C6P42E,14,0,4,1.0,0,0,2,0,4,1.0,asocial
01JW9753GREBH8Q1H278C6P42E,14,1,4,1.0,4,0,8,1,4,1.0,asocial
01JW9753GREBH8Q1H278C6P42E,14,2,4,1.0,0,0,3,1,4,1.0,asocial
01JW9753GREBH8Q1H278C6P42E,14,3,4,1.0,0,0,18,4,4,1.0,asocial
01JW9753GREBH8Q1H278C6P42E,14,4,4,1.0,4,0,71,11,4,1.0,asocial
01JW9753GREBH8Q1H278C6P42E,14,5,4,1.0,0,0,0,0,4,1.0,asocial
01JW9753GREBH8Q1H278C6P42E,14,6,4,1.0,0,0,1,0,4,1.0,asocial
01JW9753GREBH8Q1H278C6P42E,14,7,4,1.0,0,0,2,0,4,1.0,asocial
01JW9753GREBH8Q1H278C6P42E,14,8,4,1.0,1,0,1,0,4,1.0,asocial
01JW9753GREBH8Q1H278C6P42E,14,9,4,1.0,0,0,0,1,4,1.0,asocial
01JW9753GREBH8Q1H278C6P42E,15,0,4,0.0,0,0,2,0,4,1.0,asocial
01JW9753GREBH8Q1H278C6P42E,15,1,4,0.0,4,0,8,1,4,1.0,asocial
01JW9753GREBH8Q1H278C6P42E,15,2,4,0.0,0,0,3,1,4,1.0,asocial
01JW9753GREBH8Q1H278C6P42E,15,3,4,0.0,0,0,18,4,4,1.0,asocial
01JW9753GREBH8Q1H278C6P42E,15,4,4,0.0,5,0,80,12,4,1.0,asocial
01JW9753GREBH8Q1H278C6P42E,15,5,4,0.0,0,0,0,0,4,1.0,asocial
01JW9753GREBH8Q1H278C6P42E,15,6,4,0.0,0,0,1,0,4,1.0,asocial
01JW9753GREBH8Q1H278C6P42E,15,7,4,0.0,0,0,2,0,4,1.0,asocial
01JW9753GREBH8Q1H278C6P42E,15,8,4,0.0,1,0,1,0,4,1.0,asocial
01JW9753GREBH8Q1H278C6P42E,15,9,4,0.0,0,0,0,1,4,1.0,asocial
01JW9753GREBH8Q1H278C6P42E,16,0,4,1.0,0,0,2,0,4,0.0,asocial
01JW9753GREBH8Q1H278C6P42E,16,1,4,1.0,4,0,8,1,4,0.0,asocial
01JW9753GREBH8Q1H278C6P42E,16,2,4,1.0,0,0,3,1,4,0.0,asocial
01JW9753GREBH8Q1H278C6P42E,16,3,4,1.0,0,0,18,4,4,0.0,asocial
01JW9753GREBH8Q1H278C6P42E,16,4,4,1.0,5,1,88,14,4,0.0,asocial
01JW9753GREBH8Q1H278C6P42E,16,5,4,1.0,0,0,0,0,4,0.0,asocial
01JW9753GREBH8Q1H278C6P42E,16,6,4,1.0,0,0,1,0,4,0.0,asocial
01JW9753GREBH8Q1H278C6P42E,16,7,4,1.0,0,0,2,0,4,0.0,asocial
01JW9753GREBH8Q1H278C6P42E,16,8,4,1.0,1,0,1,0,4,0.0,asocial
01JW9753GREBH8Q1H278C6P42E,16,9,4,1.0,0,0,0,1,4,0.0,asocial
01JW9753GREBH8Q1H278C6P42E,17,0,4,0.0,0,0,2,0,4,1.0,asocial
01JW9753GREBH8Q1H278C6P42E,17,1,4,0.0,4,0,8,1,4,1.0,asocial
01JW9753GREBH8Q1H278C6P42E,17,2,4,0.0,0,0,3,1,4,1.0,asocial
01JW9753GREBH8Q1H278C6P42E,17,3,4,0.0,0,0,18,4,4,1.0,asocial
01JW9753GREBH8Q1H278C6P42E,17,4,4,0.0,6,1,98,14,4,1.0,asocial
01JW9753GREBH8Q1H278C6P42E,17,5,4,0.0,0,0,0,0,4,1.0,asocial
01JW9753GREBH8Q1H278C6P42E,17,6,4,0.0,0,0,1,0,4,1.0,asocial
01JW9753GREBH8Q1H278C6P42E,17,7,4,0.0,0,0,2,0,4,1.0,asocial
01JW9753GREBH8Q1H278C6P42E,17,8,4,0.0,1,0,1,0,4,1.0,asocial
01JW9753GREBH8Q1H278C6P42E,17,9,4,0.0,0,0,0,1,4,1.0,asocial
01JW9753GREBH8Q1H278C6P42E,18,0,4,1.0,0,0,2,0,4,0.0,asocial
01JW9753GREBH8Q1H278C6P42E,18,1,4,1.0,4,0,8,1,4,0.0,asocial
01JW9753GREBH8Q1H278C6P42E,18,2,4,1.0,0,0,3,1,4,0.0,asocial
01JW9753GREBH8Q1H278C6P42E,18,3,4,1.0,0,0,19,4,4,0.0,asocial
01JW9753GREBH8Q1H278C6P42E,18,4,4,1.0,6,2,105,16,4,0.0,asocial
01JW9753GREBH8Q1H278C6P42E,18,5,4,1.0,0,0,0,0,4,0.0,asocial
01JW9753GREBH8Q1H278C6P42E,18,6,4,1.0,0,0,1,0,4,0.0,asocial
01JW9753GREBH8Q1H278C6P42E,18,7,4,1.0,0,0,2,0,4,0.0,asocial
01JW9753GREBH8Q1H278C6P42E,18,8,4,1.0,1,0,1,0,4,0.0,asocial
01JW9753GREBH8Q1H278C6P42E,18,9,4,1.0,0,0,0,1,4,0.0,asocial
01JW9753GREBH8Q1H278C6P42E,19,0,4,1.0,0,0,2,0,4,1.0,asocial
01JW9753GREBH8Q1H278C6P42E,19,1,4,1.0,4,0,8,1,4,1.0,asocial
01JW9753GREBH8Q1H278C6P42E,19,2,4,1.0,0,0,3,1,4,1.0,asocial
01JW9753GREBH8Q1H278C6P42E,19,3,4,1.0,0,0,20,4,4,1.0,asocial
01JW9753GREBH8Q1H278C6P42E,19,4,4,1.0,7,2,114,16,4,1.0,asocial
01JW9753GREBH8Q1H278C6P42E,19,5,4,1.0,0,0,0,0,4,1.0,asocial
01JW9753GREBH8Q1H278C6P42E,19,6,4,1.0,0,0,1,0,4,1.0,asocial
01JW9753GREBH8Q1H278C6P42E,19,7,4,1.0,0,0,2,0,4,1.0,asocial
01JW9753GREBH8Q1H278C6P42E,19,8,4,1.0,1,0,1,0,4,1.0,asocial
01JW9753GREBH8Q1H278C6P42E,19,9,4,1.0,0,0,0,1,4,1.0,asocial
01JW9753GREBH8Q1H278C6P42E,20,0,4,1.0,0,0,2,0,4,1.0,asocial
01JW9753GREBH8Q1H278C6P42E,20,1,4,1.0,4,0,8,1,4,1.0,asocial
01JW9753GREBH8Q1H278C6P42E,20,2,4,1.0,0,0,3,1,4,1.0,asocial
01JW9753GREBH8Q1H278C6P42E,20,3,4,1.0,0,0,21,4,4,1.0,asocial
01JW9753GREBH8Q1H278C6P42E,20,4,4,1.0,8,2,123,16,4,1.0,asocial
01JW9753GREBH8Q1H278C6P42E,20,5,4,1.0,0,0,0,0,4,1.0,asocial
01JW9753GREBH8Q1H278C6P42E,20,6,4,1.0,0,0,1,0,4,1.0,asocial
01JW9753GREBH8Q1H278C6P42E,20,7,4,1.0,0,0,2,0,4,1.0,asocial
01JW9753GREBH8Q1H278C6P42E,20,8,4,1.0,1,0,1,0,4,1.0,asocial
01JW9753GREBH8Q1H278C6P42E,20,9,4,1.0,0,0,0,1,4,1.0,asocial
01JW9753GREBH8Q1H278C6P42E,21,0,4,1.0,0,0,2,0,4,1.0,asocial
01JW9753GREBH8Q1H278C6P42E,21,1,4,1.0,4,0,8,1,4,1.0,asocial
01JW9753GREBH8Q1H278C6P42E,21,2,4,1.0,0,0,3,1,4,1.0,asocial
01JW9753GREBH8Q1H278C6P42E,21,3,4,1.0,0,0,21,4,4,1.0,asocial
01JW9753GREBH8Q1H278C6P42E,21,4,4,1.0,9,2,133,16,4,1.0,asocial
01JW9753GREBH8Q1H278C6P42E,21,5,4,1.0,0,0,0,0,4,1.0,asocial
01JW9753GREBH8Q1H278C6P42E,21,6,4,1.0,0,0,1,0,4,1.0,asocial
01JW9753GREBH8Q1H278C6P42E,21,7,4,1.0,0,0,2,0,4,1.0,asocial
01JW9753GREBH8Q1H278C6P42E,21,8,4,1.0,1,0,1,0,4,1.0,asocial
01JW9753GREBH8Q1H278C6P42E,21,9,4,1.0,0,0,0,1,4,1.0,asocial
01JW9753GREBH8Q1H278C6P42E,22,0,4,1.0,0,0,2,0,4,1.0,asocial
01JW9753GREBH8Q1H278C6P42E,22,1,4,1.0,4,0,8,1,4,1.0,asocial
01JW9753GREBH8Q1H278C6P42E,22,2,4,1.0,0,0,3,1,4,1.0,asocial
01JW9753GREBH8Q1H278C6P42E,22,3,4,1.0,0,0,22,4,4,1.0,asocial
01JW9753GREBH8Q1H278C6P42E,22,4,4,1.0,10,2,140,18,4,1.0,asocial
01JW9753GREBH8Q1H278C6P42E,22,5,4,1.0,0,0,0,0,4,1.0,asocial
01JW9753GREBH8Q1H278C6P42E,22,6,4,1.0,0,0,1,0,4,1.0,asocial
01JW9753GREBH8Q1H278C6P42E,22,7,4,1.0,0,0,2,0,4,1.0,asocial
01JW9753GREBH8Q1H278C6P42E,22,8,4,1.0,1,0,1,0,4,1.0,asocial
01JW9753GREBH8Q1H278C6P42E,22,9,4,1.0,0,0,0,1,4,1.0,asocial
01JW9753GREBH8Q1H278C6P42E,23,0,4,1.0,0,0,2,0,4,1.0,asocial
01JW9753GREBH8Q1H278C6P42E,23,1,4,1.0,4,0,8,1,4,1.0,asocial
01JW9753GREBH8Q1H278C6P42E,23,2,4,1.0,0,0,3,1,4,1.0,asocial
01JW9753GREBH8Q1H278C6P42E,23,3,4,1.0,0,0,22,4,4,1.0,asocial
01JW9753GREBH8Q1H278C6P42E,23,4,4,1.0,11,2,150,18,4,1.0,asocial
01JW9753GREBH8Q1H278C6P42E,23,5,4,1.0,0,0,0,0,4,1.0,asocial
01JW9753GREBH8Q1H278C6P42E,23,6,4,1.0,0,0,1,0,4,1.0,asocial
01JW9753GREBH8Q1H278C6P42E,23,7,4,1.0,0,0,2,0,4,1.0,asocial
01JW9753GREBH8Q1H278C6P42E,23,8,4,1.0,1,0,1,0,4,1.0,asocial
01JW9753GREBH8Q1H278C6P42E,23,9,4,1.0,0,0,0,1,4,1.0,asocial
01JW9753GREBH8Q1H278C6P42E,24,0,4,1.0,0,0,2,0,4,1.0,asocial
01JW9753GREBH8Q1H278C6P42E,24,1,4,1.0,4,0,8,1,4,1.0,asocial
01JW9753GREBH8Q1H278C6P42E,24,2,4,1.0,0,0,3,1,4,1.0,asocial
01JW9753GREBH8Q1H278C6P42E,24,3,4,1.0,0,0,22,4,4,1.0,asocial
01JW9753GREBH8Q1H278C6P42E,24,4,4,1.0,12,2,159,19,4,1.0,asocial
01JW9753GREBH8Q1H278C6P42E,24,5,4,1.0,0,0,0,0,4,1.0,asocial
01JW9753GREBH8Q1H278C6P42E,24,6,4,1.0,0,0,1,0,4,1.0,asocial
01JW9753GREBH8Q1H278C6P42E,24,7,4,1.0,0,0,2,0,4,1.0,asocial
01JW9753GREBH8Q1H278C6P42E,24,8,4,1.0,1,0,1,0,4,1.0,asocial
01JW9753GREBH8Q1H278C6P42E,24,9,4,1.0,0,0,0,1,4,1.0,asocial
01JW9753GREBH8Q1H278C6P42E,25,0,3,1.0,0,0,2,0,4,1.0,asocial
01JW9753GREBH8Q1H278C6P42E,25,1,3,1.0,4,0,8,1,4,1.0,asocial
01JW9753GREBH8Q1H278C6P42E,25,2,3,1.0,0,0,3,1,4,1.0,asocial
01JW9753GREBH8Q1H278C6P42E,25,3,3,1.0,0,0,22,4,4,1.0,asocial
01JW9753GREBH8Q1H278C6P42E,25,4,3,1.0,13,2,168,20,4,1.0,asocial
01JW9753GREBH8Q1H278C6P42E,25,5,3,1.0,0,0,0,0,4,1.0,asocial
01JW9753GREBH8Q1H278C6P42E,25,6,3,1.0,0,0,1,0,4,1.0,asocial
01JW9753GREBH8Q1H278C6P42E,25,7,3,1.0,0,0,2,0,4,1.0,asocial
01JW9753GREBH8Q1H278C6P42E,25,8,3,1.0,1,0,1,0,4,1.0,asocial
01JW9753GREBH8Q1H278C6P42E,25,9,3,1.0,0,0,0,1,4,1.0,asocial
01JW9753GREBH8Q1H278C6P42E,26,0,4,1.0,0,0,2,0,3,1.0,asocial
01JW9753GREBH8Q1H278C6P42E,26,1,4,1.0,4,0,8,1,3,1.0,asocial
01JW9753GREBH8Q1H278C6P42E,26,2,4,1.0,0,0,3,1,3,1.0,asocial
01JW9753GREBH8Q1H278C6P42E,26,3,4,1.0,1,0,23,4,3,1.0,asocial
01JW9753GREBH8Q1H278C6P42E,26,4,4,1.0,13,2,176,21,3,1.0,asocial
01JW9753GREBH8Q1H278C6P42E,26,5,4,1.0,0,0,0,0,3,1.0,asocial
01JW9753GREBH8Q1H278C6P42E,26,6,4,1.0,0,0,1,0,3,1.0,asocial
01JW9753GREBH8Q1H278C6P42E,26,7,4,1.0,0,0,2,0,3,1.0,asocial
01JW9753GREBH8Q1H278C6P42E,26,8,4,1.0,1,0,1,0,3,1.0,asocial
01JW9753GREBH8Q1H278C6P42E,26,9,4,1.0,0,0,0,1,3,1.0,asocial
01JW9753GREBH8Q1H278C6P42E,27,0,4,0.0,0,0,2,0,4,1.0,asocial
01JW9753GREBH8Q1H278C6P42E,27,1,4,0.0,4,0,8,1,4,1.0,asocial
01JW9753GREBH8Q1H278C6P42E,27,2,4,0.0,0,0,3,1,4,1.0,asocial
01JW9753GREBH8Q1H278C6P42E,27,3,4,0.0,1,0,23,4,4,1.0,asocial
01JW9753GREBH8Q1H278C6P42E,27,4,4,0.0,14,2,184,22,4,1.0,asocial
01JW9753GREBH8Q1H278C6P42E,27,5,4,0.0,0,0,0,0,4,1.0,asocial
01JW9753GREBH8Q1H278C6P42E,27,6,4,0.0,0,0,1,0,4,1.0,asocial
01JW9753GREBH8Q1H278C6P42E,27,7,4,0.0,0,0,3,0,4,1.0,asocial
01JW9753GREBH8Q1H278C6P42E,27,8,4,0.0,1,0,1,0,4,1.0,asocial
01JW9753GREBH8Q1H278C6P42E,27,9,4,0.0,0,0,0,1,4,1.0,asocial
01JW9753GREBH8Q1H278C6P42E,28,0,4,1.0,0,0,2,0,4,0.0,asocial
01JW9753GREBH8Q1H278C6P42E,28,1,4,1.0,4,0,10,1,4,0.0,asocial
01JW9753GREBH8Q1H278C6P42E,28,2,4,1.0,0,0,3,1,4,0.0,asocial
01JW9753GREBH8Q1H278C6P42E,28,3,4,1.0,1,0,23,4,4,0.0,asocial
01JW9753GREBH8Q1H278C6P42E,28,4,4,1.0,14,3,191,23,4,0.0,asocial
01JW9753GREBH8Q1H278C6P42E,28,5,4,1.0,0,0,0,0,4,0.0,asocial
01JW9753GREBH8Q1H278C6P42E,28,6,4,1.0,0,0,1,0,4,0.0,asocial
01JW9753GREBH8Q1H278C6P42E,28,7,4,1.0,0,0,3,0,4,0.0,asocial
01JW9753GREBH8Q1H278C6P42E,28,8,4,1.0,1,0,1,0,4,0.0,asocial
01JW9753GREBH8Q1H278C6P42E,28,9,4,1.0,0,0,0,1,4,0.0,asocial
01JW9753GREBH8Q1H278C6P42E,29,0,4,1.0,0,0,2,0,4,1.0,asocial
01JW9753GREBH8Q1H278C6P42E,29,1,4,1.0,4,0,11,1,4,1.0,asocial
01JW9753GREBH8Q1H278C6P42E,29,2,4,1.0,0,0,3,1,4,1.0,asocial
01JW9753GREBH8Q1H278C6P42E,29,3,4,1.0,1,0,23,4,4,1.0,asocial
01JW9753GREBH8Q1H278C6P42E,29,4,4,1.0,15,3,200,23,4,1.0,asocial
01JW9753GREBH8Q1H278C6P42E,29,5,4,1.0,0,0,0,0,4,1.0,asocial
01JW9753GREBH8Q1H278C6P42E,29,6,4,1.0,0,0,1,0,4,1.0,asocial
01JW9753GREBH8Q1H278C6P42E,29,7,4,1.0,0,0,3,0,4,1.0,asocial
01JW9753GREBH8Q1H278C6P42E,29,8,4,1.0,1,0,1,0,4,1.0,asocial
01JW9753GREBH8Q1H278C6P42E,29,9,4,1.0,0,0,0,1,4,1.0,asocial
01JW9753GREBH8Q1H278C6P42E,30,0,4,1.0,0,0,2,0,4,1.0,asocial
01JW9753GREBH8Q1H278C6P42E,30,1,4,1.0,4,0,12,1,4,1.0,asocial
01JW9753GREBH8Q1H278C6P42E,30,2,4,1.0,0,0,3,1,4,1.0,asocial
01JW9753GREBH8Q1H278C6P42E,30,3,4,1.0,1,0,23,4,4,1.0,asocial
01JW9753GREBH8Q1H278C6P42E,30,4,4,1.0,16,3,207,25,4,1.0,asocial
01JW9753GREBH8Q1H278C6P42E,30,5,4,1.0,0,0,0,0,4,1.0,asocial
01JW9753GREBH8Q1H278C6P42E,30,6,4,1.0,0,0,1,0,4,1.0,asocial
01JW9753GREBH8Q1H278C6P42E,30,7,4,1.0,0,0,3,0,4,1.0,asocial
01JW9753GREBH8Q1H278C6P42E,30,8,4,1.0,1,0,1,0,4,1.0,asocial
01JW9753GREBH8Q1H278C6P42E,30,9,4,1.0,0,0,0,1,4,1.0,asocial
01JW9753GREBH8Q1H278C6P42E,31,0,4,0.0,0,0,2,0,4,1.0,asocial
01JW9753GREBH8Q1H278C6P42E,31,1,4,0.0,4,0,13,1,4,1.0,asocial
01JW9753GREBH8Q1H278C6P42E,31,2,4,0.0,0,0,3,1,4,1.0,asocial
01JW9753GREBH8Q1H278C6P42E,31,3,4,0.0,1,0,23,4,4,1.0,asocial
01JW9753GREBH8Q1H278C6P42E,31,4,4,0.0,17,3,213,28,4,1.0,asocial
01JW9753GREBH8Q1H278C6P42E,31,5,4,0.0,0,0,0,0,4,1.0,asocial
01JW9753GREBH8Q1H278C6P42E,31,6,4,0.0,0,0,1,0,4,1.0,asocial
01JW9753GREBH8Q1H278C6P42E,31,7,4,0.0,0,0,3,0,4,1.0,asocial
01JW9753GREBH8Q1H278C6P42E,31,8,4,0.0,1,0,1,0,4,1.0,asocial
01JW9753GREBH8Q1H278C6P42E,31,9,4,0.0,0,0,0,1,4,1.0,asocial
01JW9753GREBH8Q1H278C6P42E,32,0,4,1.0,0,0,2,0,4,0.0,asocial
01JW9753GREBH8Q1H278C6P42E,32,1,4,1.0,4,0,13,1,4,0.0,asocial
01JW9753GREBH8Q1H278C6P42E,32,2,4,1.0,0,0,3,1,4,0.0,asocial
01JW9753GREBH8Q1H278C6P42E,32,3,4,1.0,1,0,23,4,4,0.0,asocial
01JW9753GREBH8Q1H278C6P42E,32,4,4,1.0,17,4,221,30,4,0.0,asocial
01JW9753GREBH8Q1H278C6P42E,32,5,4,1.0,0,0,0,0,4,0.0,asocial
01JW9753GREBH8Q1H278C6P42E,32,6,4,1.0,0,0,1,0,4,0.0,asocial
01JW9753GREBH8Q1H278C6P42E,32,7,4,1.0,0,0,3,0,4,0.0,asocial
01JW9753GREBH8Q1H278C6P42E,32,8,4,1.0,1,0,1,0,4,0.0,asocial
01JW9753GREBH8Q1H278C6P42E,32,9,4,1.0,0,0,0,1,4,0.0,asocial
01JW9753GREBH8Q1H278C6P42E,33,0,4,1.0,0,0,2,0,4,1.0,asocial
01JW9753GREBH8Q1H278C6P42E,33,1,4,1.0,4,0,14,2,4,1.0,asocial
01JW9753GREBH8Q1H278C6P42E,33,2,4,1.0,0,0,3,1,4,1.0,asocial
01JW9753GREBH8Q1H278C6P42E,33,3,4,1.0,1,0,23,4,4,1.0,asocial
01JW9753GREBH8Q1H278C6P42E,33,4,4,1.0,18,4,228,31,4,1.0,asocial
01JW9753GREBH8Q1H278C6P42E,33,5,4,1.0,0,0,0,0,4,1.0,asocial
01JW9753GREBH8Q1H278C6P42E,33,6,4,1.0,0,0,1,0,4,1.0,asocial
01JW9753GREBH8Q1H278C6P42E,33,7,4,1.0,0,0,3,0,4,1.0,asocial
01JW9753GREBH8Q1H278C6P42E,33,8,4,1.0,1,0,1,0,4,1.0,asocial
01JW9753GREBH8Q1H278C6P42E,33,9,4,1.0,0,0,0,1,4,1.0,asocial
01JW9753GREBH8Q1H278C6P42E,34,0,4,1.0,0,0,2,0,4,1.0,asocial
01JW9753GREBH8Q1H278C6P42E,34,1,4,1.0,4,0,14,2,4,1.0,asocial
01JW9753GREBH8Q1H278C6P42E,34,2,4,1.0,0,0,3,1,4,1.0,asocial
01JW9753GREBH8Q1H278C6P42E,34,3,4,1.0,1,0,23,4,4,1.0,asocial
01JW9753GREBH8Q1H278C6P42E,34,4,4,1.0,19,4,238,31,4,1.0,asocial
01JW9753GREBH8Q1H278C6P42E,34,5,4,1.0,0,0,0,0,4,1.0,asocial
01JW9753GREBH8Q1H278C6P42E,34,6,4,1.0,0,0,1,0,4,1.0,asocial
01JW9753GREBH8Q1H278C6P42E,34,7,4,1.0,0,0,3,0,4,1.0,asocial
01JW9753GREBH8Q1H278C6P42E,34,8,4,1.0,1,0,1,0,4,1.0,asocial
01JW9753GREBH8Q1H278C6P42E,34,9,4,1.0,0,0,0,1,4,1.0,asocial
01JW9753GREBH8Q1H278C6P42E,35,0,4,0.0,0,0,2,0,4,1.0,asocial
01JW9753GREBH8Q1H278C6P42E,35,1,4,0.0,4,0,14,2,4,1.0,asocial
01JW9753GREBH8Q1H278C6P42E,35,2,4,0.0,0,0,3,1,4,1.0,asocial
01JW9753GREBH8Q1H278C6P42E,35,3,4,0.0,1,0,23,4,4,1.0,asocial
01JW9753GREBH8Q1H278C6P42E,35,4,4,0.0,20,4,247,32,4,1.0,asocial
01JW9753GREBH8Q1H278C6P42E,35,5,4,0.0,0,0,0,0,4,1.0,asocial
01JW9753GREBH8Q1H278C6P42E,35,6,4,0.0,0,0,1,0,4,1.0,asocial
01JW9753GREBH8Q1H278C6P42E,35,7,4,0.0,0,0,3,0,4,1.0,asocial
01JW9753GREBH8Q1H278C6P42E,35,8,4,0.0,1,0,1,0,4,1.0,asocial
01JW9753GREBH8Q1H278C6P42E,35,9,4,0.0,0,0,0,1,4,1.0,asocial
01JW9753GREBH8Q1H278C6P42E,36,0,4,1.0,0,0,2,0,4,0.0,asocial
01JW9753GREBH8Q1H278C6P42E,36,1,4,1.0,4,0,15,2,4,0.0,asocial
01JW9753GREBH8Q1H278C6P42E,36,2,4,1.0,0,0,3,1,4,0.0,asocial
01JW9753GREBH8Q1H278C6P42E,36,3,4,1.0,1,0,23,4,4,0.0,asocial
01JW9753GREBH8Q1H278C6P42E,36,4,4,1.0,20,5,254,34,4,0.0,asocial
01JW9753GREBH8Q1H278C6P42E,36,5,4,1.0,0,0,0,0,4,0.0,asocial
01JW9753GREBH8Q1H278C6P42E,36,6,4,1.0,0,0,1,0,4,0.0,asocial
01JW9753GREBH8Q1H278C6P42E,36,7,4,1.0,0,0,3,0,4,0.0,asocial
01JW9753GREBH8Q1H278C6P42E,36,8,4,1.0,1,0,1,0,4,0.0,asocial
01JW9753GREBH8Q1H278C6P42E,36,9,4,1.0,0,0,0,1,4,0.0,asocial
01JW9753GREBH8Q1H278C6P42E,37,0,4,1.0,0,0,2,0,4,1.0,asocial
01JW9753GREBH8Q1H278C6P42E,37,1,4,1.0,4,0,16,2,4,1.0,asocial
01JW9753GREBH8Q1H278C6P42E,37,2,4,1.0,0,0,3,1,4,1.0,asocial
01JW9753GREBH8Q1H278C6P42E,37,3,4,1.0,1,0,23,4,4,1.0,asocial
01JW9753GREBH8Q1H278C6P42E,37,4,4,1.0,21,5,261,36,4,1.0,asocial
01JW9753GREBH8Q1H278C6P42E,37,5,4,1.0,0,0,0,0,4,1.0,asocial
01JW9753GREBH8Q1H278C6P42E,37,6,4,1.0,0,0,1,0,4,1.0,asocial
01JW9753GREBH8Q1H278C6P42E,37,7,4,1.0,0,0,3,0,4,1.0,asocial
01JW9753GREBH8Q1H278C6P42E,37,8,4,1.0,1,0,1,0,4,1.0,asocial
01JW9753GREBH8Q1H278C6P42E,37,9,4,1.0,0,0,0,1,4,1.0,asocial
01JW9753GREBH8Q1H278C6P42E,38,0,4,1.0,0,0,2,0,4,1.0,asocial
01JW9753GREBH8Q1H278C6P42E,38,1,4,1.0,4,0,17,2,4,1.0,asocial
01JW9753GREBH8Q1H278C6P42E,38,2,4,1.0,0,0,3,1,4,1.0,asocial
01JW9753GREBH8Q1H278C6P42E,38,3,4,1.0,1,0,23,4,4,1.0,asocial
01JW9753GREBH8Q1H278C6P42E,38,4,4,1.0,22,5,269,37,4,1.0,asocial
01JW9753GREBH8Q1H278C6P42E,38,5,4,1.0,0,0,0,0,4,1.0,asocial
01JW9753GREBH8Q1H278C6P42E,38,6,4,1.0,0,0,1,0,4,1.0,asocial
01JW9753GREBH8Q1H278C6P42E,38,7,4,1.0,0,0,3,0,4,1.0,asocial
01JW9753GREBH8Q1H278C6P42E,38,8,4,1.0,1,0,1,0,4,1.0,asocial
01JW9753GREBH8Q1H278C6P42E,38,9,4,1.0,0,0,0,1,4,1.0,asocial
01JW9753GREBH8Q1H278C6P42E,39,0,4,1.0,0,0,2,0,4,1.0,asocial
01JW9753GREBH8Q1H278C6P42E,39,1,4,1.0,4,0,17,2,4,1.0,asocial
01JW9753GREBH8Q1H278C6P42E,39,2,4,1.0,0,0,3,1,4,1.0,asocial
01JW9753GREBH8Q1H278C6P42E,39,3,4,1.0,1,0,23,4,4,1.0,asocial
01JW9753GREBH8Q1H278C6P42E,39,4,4,1.0,23,5,279,37,4,1.0,asocial
01JW9753GREBH8Q1H278C6P42E,39,5,4,1.0,0,0,0,0,4,1.0,asocial
01JW9753GREBH8Q1H278C6P42E,39,6,4,1.0,0,0,1,0,4,1.0,asocial
01JW9753GREBH8Q1H278C6P42E,39,7,4,1.0,0,0,3,0,4,1.0,asocial
01JW9753GREBH8Q1H278C6P42E,39,8,4,1.0,1,0,1,0,4,1.0,asocial
01JW9753GREBH8Q1H278C6P42E,39,9,4,1.0,0,0,0,1,4,1.0,asocial
01JW9753GREBH8Q1H278C6P42E,40,0,4,1.0,0,0,2,0,4,1.0,asocial
01JW9753GREBH8Q1H278C6P42E,40,1,4,1.0,4,0,17,3,4,1.0,asocial
01JW9753GREBH8Q1H278C6P42E,40,2,4,1.0,0,0,3,1,4,1.0,asocial
01JW9753GREBH8Q1H278C6P42E,40,3,4,1.0,1,0,24,4,4,1.0,asocial
01JW9753GREBH8Q1H278C6P42E,40,4,4,1.0,24,5,287,37,4,1.0,asocial
01JW9753GREBH8Q1H278C6P42E,40,5,4,1.0,0,0,0,0,4,1.0,asocial
01JW9753GREBH8Q1H278C6P42E,40,6,4,1.0,0,0,1,0,4,1.0,asocial
01JW9753GREBH8Q1H278C6P42E,40,7,4,1.0,0,0,3,0,4,1.0,asocial
01JW9753GREBH8Q1H278C6P42E,40,8,4,1.0,1,0,1,0,4,1.0,asocial
01JW9753GREBH8Q1H278C6P42E,40,9,4,1.0,0,0,0,1,4,1.0,asocial
01JW9753GREBH8Q1H278C6P42E,42,0,4,1.0,0,0,2,0,-1,,asocial
01JW9753GREBH8Q1H278C6P42E,42,1,4,1.0,4,0,17,3,-1,,asocial
01JW9753GREBH8Q1H278C6P42E,42,2,4,1.0,0,0,3,1,-1,,asocial
01JW9753GREBH8Q1H278C6P42E,42,3,4,1.0,1,0,24,5,-1,,asocial
01JW9753GREBH8Q1H278C6P42E,42,4,4,1.0,25,5,305,37,-1,,asocial
01JW9753GREBH8Q1H278C6P42E,42,5,4,1.0,0,0,0,0,-1,,asocial
01JW9753GREBH8Q1H278C6P42E,42,6,4,1.0,0,0,1,0,-1,,asocial
01JW9753GREBH8Q1H278C6P42E,42,7,4,1.0,0,0,3,0,-1,,asocial
01JW9753GREBH8Q1H278C6P42E,42,8,4,1.0,1,0,1,0,-1,,asocial
01JW9753GREBH8Q1H278C6P42E,42,9,4,1.0,0,0,0,1,-1,,asocial
01JW9753GREBH8Q1H278C6P42E,44,0,4,1.0,0,0,2,0,-1,,asocial
01JW9753GREBH8Q1H278C6P42E,44,1,4,1.0,4,0,17,4,-1,,asocial
01JW9753GREBH8Q1H278C6P42E,44,2,4,1.0,0,0,3,1,-1,,asocial
01JW9753GREBH8Q1H278C6P42E,44,3,4,1.0,1,0,24,5,-1,,asocial
01JW9753GREBH8Q1H278C6P42E,44,4,4,1.0,26,5,321,38,-1,,asocial
01JW9753GREBH8Q1H278C6P42E,44,5,4,1.0,0,0,0,0,-1,,asocial
01JW9753GREBH8Q1H278C6P42E,44,6,4,1.0,0,0,1,0,-1,,asocial
01JW9753GREBH8Q1H278C6P42E,44,7,4,1.0,0,0,4,0,-1,,asocial
01JW9753GREBH8Q1H278C6P42E,44,8,4,1.0,1,0,1,0,-1,,asocial
01JW9753GREBH8Q1H278C6P42E,44,9,4,1.0,0,0,0,1,-1,,asocial
01JW9753GREBH8Q1H278C6P42E,45,0,4,1.0,0,0,2,0,4,1.0,asocial
01JW9753GREBH8Q1H278C6P42E,45,1,4,1.0,4,0,18,4,4,1.0,asocial
01JW9753GREBH8Q1H278C6P42E,45,2,4,1.0,0,0,3,1,4,1.0,asocial
01JW9753GREBH8Q1H278C6P42E,45,3,4,1.0,1,0,24,5,4,1.0,asocial
01JW9753GREBH8Q1H278C6P42E,45,4,4,1.0,27,5,328,40,4,1.0,asocial
01JW9753GREBH8Q1H278C6P42E,45,5,4,1.0,0,0,0,0,4,1.0,asocial
01JW9753GREBH8Q1H278C6P42E,45,6,4,1.0,0,0,1,0,4,1.0,asocial
01JW9753GREBH8Q1H278C6P42E,45,7,4,1.0,0,0,4,0,4,1.0,asocial
01JW9753GREBH8Q1H278C6P42E,45,8,4,1.0,1,0,1,0,4,1.0,asocial
01JW9753GREBH8Q1H278C6P42E,45,9,4,1.0,0,0,0,1,4,1.0,asocial
01JW9753GREBH8Q1H278C6P42E,46,0,4,1.0,0,0,2,0,4,1.0,asocial
01JW9753GREBH8Q1H278C6P42E,46,1,4,1.0,4,0,18,4,4,1.0,asocial
01JW9753GREBH8Q1H278C6P42E,46,2,4,1.0,0,0,3,1,4,1.0,asocial
01JW9753GREBH8Q1H278C6P42E,46,3,4,1.0,1,0,24,5,4,1.0,asocial
01JW9753GREBH8Q1H278C6P42E,46,4,4,1.0,28,5,338,40,4,1.0,asocial
01JW9753GREBH8Q1H278C6P42E,46,5,4,1.0,0,0,0,0,4,1.0,asocial
01JW9753GREBH8Q1H278C6P42E,46,6,4,1.0,0,0,1,0,4,1.0,asocial
01JW9753GREBH8Q1H278C6P42E,46,7,4,1.0,0,0,4,0,4,1.0,asocial
01JW9753GREBH8Q1H278C6P42E,46,8,4,1.0,1,0,1,0,4,1.0,asocial
01JW9753GREBH8Q1H278C6P42E,46,9,4,1.0,0,0,0,1,4,1.0,asocial
01JW9753GREBH8Q1H278C6P42E,47,0,4,0.0,0,0,2,0,4,1.0,asocial
01JW9753GREBH8Q1H278C6P42E,47,1,4,0.0,4,0,18,4,4,1.0,asocial
01JW9753GREBH8Q1H278C6P42E,47,2,4,0.0,0,0,3,1,4,1.0,asocial
01JW9753GREBH8Q1H278C6P42E,47,3,4,0.0,1,0,24,5,4,1.0,asocial
01JW9753GREBH8Q1H278C6P42E,47,4,4,0.0,29,5,347,41,4,1.0,asocial
01JW9753GREBH8Q1H278C6P42E,47,5,4,0.0,0,0,0,0,4,1.0,asocial
01JW9753GREBH8Q1H278C6P42E,47,6,4,0.0,0,0,1,0,4,1.0,asocial
01JW9753GREBH8Q1H278C6P42E,47,7,4,0.0,0,0,4,0,4,1.0,asocial
01JW9753GREBH8Q1H278C6P42E,47,8,4,0.0,1,0,1,0,4,1.0,asocial
01JW9753GREBH8Q1H278C6P42E,47,9,4,0.0,0,0,0,1,4,1.0,asocial
01JW9753GREBH8Q1H278C6P42E,48,0,4,1.0,0,0,2,0,4,0.0,asocial
01JW9753GREBH8Q1H278C6P42E,48,1,4,1.0,4,0,18,4,4,0.0,asocial
01JW9753GREBH8Q1H278C6P42E,48,2,4,1.0,0,0,3,1,4,0.0,asocial
01JW9753GREBH8Q1H278C6P42E,48,3,4,1.0,1,0,25,5,4,0.0,asocial
01JW9753GREBH8Q1H278C6P42E,48,4,4,1.0,29,6,353,44,4,0.0,asocial
01JW9753GREBH8Q1H278C6P42E,48,5,4,1.0,0,0,0,0,4,0.0,asocial
01JW9753GREBH8Q1H278C6P42E,48,6,4,1.0,0,0,1,0,4,0.0,asocial
01JW9753GREBH8Q1H278C6P42E,48,7,4,1.0,0,0,4,0,4,0.0,asocial
01JW9753GREBH8Q1H278C6P42E,48,8,4,1.0,1,0,1,0,4,0.0,asocial
01JW9753GREBH8Q1H278C6P42E,48,9,4,1.0,0,0,0,1,4,0.0,asocial
01JW9753GREBH8Q1H278C6P42E,49,0,4,1.0,0,0,2,0,4,1.0,asocial
01JW9753GREBH8Q1H278C6P42E,49,1,4,1.0,4,0,18,4,4,1.0,asocial
01JW9753GREBH8Q1H278C6P42E,49,2,4,1.0,0,0,3,1,4,1.0,asocial
01JW9753GREBH8Q1H278C6P42E,49,3,4,1.0,1,0,26,5,4,1.0,asocial
01JW9753GREBH8Q1H278C6P42E,49,4,4,1.0,30,6,361,45,4,1.0,asocial
01JW9753GREBH8Q1H278C6P42E,49,5,4,1.0,0,0,0,0,4,1.0,asocial
01JW9753GREBH8Q1H278C6P42E,49,6,4,1.0,0,0,1,0,4,1.0,asocial
01JW9753GREBH8Q1H278C6P42E,49,7,4,1.0,0,0,4,0,4,1.0,asocial
01JW9753GREBH8Q1H278C6P42E,49,8,4,1.0,1,0,1,0,4,1.0,asocial
01JW9753GREBH8Q1H278C6P42E,49,9,4,1.0,0,0,0,1,4,1.0,asocial
01JW9753GREBH8Q1H278C6P42E,50,0,4,1.0,0,0,2,0,4,1.0,asocial
01JW9753GREBH8Q1H278C6P42E,50,1,4,1.0,4,0,18,4,4,1.0,asocial
01JW9753GREBH8Q1H278C6P42E,50,2,4,1.0,0,0,3,1,4,1.0,asocial
01JW9753GREBH8Q1H278C6P42E,50,3,4,1.0,1,0,26,5,4,1.0,asocial
01JW9753GREBH8Q1H278C6P42E,50,4,4,1.0,31,6,369,46,4,1.0,asocial
01JW9753GREBH8Q1H278C6P42E,50,5,4,1.0,0,0,0,0,4,1.0,asocial
01JW9753GREBH8Q1H278C6P42E,50,6,4,1.0,0,0,1,0,4,1.0,asocial
01JW9753GREBH8Q1H278C6P42E,50,7,4,1.0,0,0,5,0,4,1.0,asocial
01JW9753GREBH8Q1H278C6P42E,50,8,4,1.0,1,0,1,0,4,1.0,asocial
01JW9753GREBH8Q1H278C6P42E,50,9,4,1.0,0,0,0,1,4,1.0,asocial
01JW9753GREBH8Q1H278C6P42E,51,0,4,1.0,0,0,2,0,4,1.0,asocial
01JW9753GREBH8Q1H278C6P42E,51,1,4,1.0,4,0,18,4,4,1.0,asocial
01JW9753GREBH8Q1H278C6P42E,51,2,4,1.0,0,0,3,1,4,1.0,asocial
01JW9753GREBH8Q1H278C6P42E,51,3,4,1.0,1,0,26,5,4,1.0,asocial
01JW9753GREBH8Q1H278C6P42E,51,4,4,1.0,32,6,378,46,4,1.0,asocial
01JW9753GREBH8Q1H278C6P42E,51,5,4,1.0,0,0,0,0,4,1.0,asocial
01JW9753GREBH8Q1H278C6P42E,51,6,4,1.0,0,0,1,0,4,1.0,asocial
01JW9753GREBH8Q1H278C6P42E,51,7,4,1.0,0,0,6,0,4,1.0,asocial
01JW9753GREBH8Q1H278C6P42E,51,8,4,1.0,1,0,1,0,4,1.0,asocial
01JW9753GREBH8Q1H278C6P42E,51,9,4,1.0,0,0,0,1,4,1.0,asocial
01JW975ABV8DXQEHP7WWZH726C,1,0,3,1.0,0,0,0,0,-1,,asocial
01JW975ABV8DXQEHP7WWZH726C,1,1,3,1.0,0,0,0,0,-1,,asocial
01JW975ABV8DXQEHP7WWZH726C,1,2,3,1.0,0,0,0,0,-1,,asocial
01JW975ABV8DXQEHP7WWZH726C,1,3,3,1.0,0,0,0,0,-1,,asocial
01JW975ABV8DXQEHP7WWZH726C,1,4,3,1.0,0,0,0,0,-1,,asocial
01JW975ABV8DXQEHP7WWZH726C,1,5,3,1.0,0,0,0,0,-1,,asocial
01JW975ABV8DXQEHP7WWZH726C,1,6,3,1.0,0,0,0,0,-1,,asocial
01JW975ABV8DXQEHP7WWZH726C,1,7,3,1.0,0,0,0,0,-1,,asocial
01JW975ABV8DXQEHP7WWZH726C,1,8,3,1.0,0,0,0,0,-1,,asocial
01JW975ABV8DXQEHP7WWZH726C,1,9,3,1.0,0,0,0,0,-1,,asocial
01JW975ABV8DXQEHP7WWZH726C,2,0,2,1.0,0,0,1,0,3,1.0,asocial
01JW975ABV8DXQEHP7WWZH726C,2,1,2,1.0,0,0,1,0,3,1.0,asocial
01JW975ABV8DXQEHP7WWZH726C,2,2,2,1.0,0,0,1,0,3,1.0,asocial
01JW975ABV8DXQEHP7WWZH726C,2,3,2,1.0,1,0,1,0,3,1.0,asocial
01JW975ABV8DXQEHP7WWZH726C,2,4,2,1.0,0,0,1,0,3,1.0,asocial
01JW975ABV8DXQEHP7WWZH726C,2,5,2,1.0,0,0,0,0,3,1.0,asocial
01JW975ABV8DXQEHP7WWZH726C,2,6,2,1.0,0,0,1,0,3,1.0,asocial
01JW975ABV8DXQEHP7WWZH726C,2,7,2,1.0,0,0,1,0,3,1.0,asocial
01JW975ABV8DXQEHP7WWZH726C,2,8,2,1.0,0,0,1,0,3,1.0,asocial
01JW975ABV8DXQEHP7WWZH726C,2,9,2,1.0,0,0,0,1,3,1.0,asocial
01JW975ABV8DXQEHP7WWZH726C,3,0,4,0.0,0,0,2,0,2,1.0,asocial
01JW975ABV8DXQEHP7WWZH726C,3,1,4,0.0,0,0,2,0,2,1.0,asocial
01JW975ABV8DXQEHP7WWZH726C,3,2,4,0.0,1,0,3,1,2,1.0,asocial
01JW975ABV8DXQEHP7WWZH726C,3,3,4,0.0,1,0,2,0,2,1.0,asocial
01JW975ABV8DXQEHP7WWZH726C,3,4,4,0.0,0,0,3,0,2,1.0,asocial
01JW975ABV8DXQEHP7WWZH726C,3,5,4,0.0,0,0,0,0,2,1.0,asocial
01JW975ABV8DXQEHP7WWZH726C,3,6,4,0.0,0,0,1,0,2,1.0,asocial
01JW975ABV8DXQEHP7WWZH726C,3,7,4,0.0,0,0,2,0,2,1.0,asocial
01JW975ABV8DXQEHP7WWZH726C,3,8,4,0.0,0,0,1,0,2,1.0,asocial
01JW975ABV8DXQEHP7WWZH726C,3,9,4,0.0,0,0,0,1,2,1.0,asocial
01JW975ABV8DXQEHP7WWZH726C,4,0,4,1.0,0,0,2,0,4,0.0,asocial
01JW975ABV8DXQEHP7WWZH726C,4,1,4,1.0,0,0,3,0,4,0.0,asocial
01JW975ABV8DXQEHP7WWZH726C,4,2,4,1.0,1,0,3,1,4,0.0,asocial
01JW975ABV8DXQEHP7WWZH726C,4,3,4,1.0,1,0,3,0,4,0.0,asocial
01JW975ABV8DXQEHP7WWZH726C,4,4,4,1.0,0,1,9,2,4,0.0,asocial
01JW975ABV8DXQEHP7WWZH726C,4,5,4,1.0,0,0,0,0,4,0.0,asocial
01JW975ABV8DXQEHP7WWZH726C,4,6,4,1.0,0,0,1,0,4,0.0,asocial
01JW975ABV8DXQEHP7WWZH726C,4,7,4,1.0,0,0,2,0,4,0.0,asocial
01JW975ABV8DXQEHP7WWZH726C,4,8,4,1.0,0,0,1,0,4,0.0,asocial
01JW975ABV8DXQEHP7WWZH726C,4,9,4,1.0,0,0,0,1,4,0.0,asocial
01JW975ABV8DXQEHP7WWZH726C,5,0,4,1.0,0,0,2,0,4,1.0,asocial
01JW975ABV8DXQEHP7WWZH726C,5,1,4,1.0,0,0,4,1,4,1.0,asocial
01JW975ABV8DXQEHP7WWZH726C,5,2,4,1.0,1,0,3,1,4,1.0,asocial
01JW975ABV8DXQEHP7WWZH726C,5,3,4,1.0,1,0,3,0,4,1.0,asocial
01JW975ABV8DXQEHP7WWZH726C,5,4,4,1.0,1,1,15,4,4,1.0,asocial
01JW975ABV8DXQEHP7WWZH726C,5,5,4,1.0,0,0,0,0,4,1.0,asocial
01JW975ABV8DXQEHP7WWZH726C,5,6,4,1.0,0,0,1,0,4,1.0,asocial
01JW975ABV8DXQEHP7WWZH726C,5,7,4,1.0,0,0,2,0,4,1.0,asocial
01JW975ABV8DXQEHP7WWZH726C,5,8,4,1.0,0,0,1,0,4,1.0,asocial
01JW975ABV8DXQEHP7WWZH726C,5,9,4,1.0,0,0,0,1,4,1.0,asocial
01JW975ABV8DXQEHP7WWZH726C,6,0,4,1.0,0,0,2,0,4,1.0,asocial
01JW975ABV8DXQEHP7WWZH726C,6,1,4,1.0,0,0,5,1,4,1.0,asocial
01JW975ABV8DXQEHP7WWZH726C,6,2,4,1.0,1,0,3,1,4,1.0,asocial
01JW975ABV8DXQEHP7WWZH726C,6,3,4,1.0,1,0,5,0,4,1.0,asocial
01JW975ABV8DXQEHP7WWZH726C,6,4,4,1.0,2,1,21,4,4,1.0,asocial
01JW975ABV8DXQEHP7WWZH726C,6,5,4,1.0,0,0,0,0,4,1.0,asocial
01JW975ABV8DXQEHP7WWZH726C,6,6,4,1.0,0,0,1,0,4,1.0,asocial
01JW975ABV8DXQEHP7WWZH726C,6,7,4,1.0,0,0,2,0,4,1.0,asocial
01JW975ABV8DXQEHP7WWZH726C,6,8,4,1.0,0,0,1,0,4,1.0,asocial
01JW975ABV8DXQEHP7WWZH726C,6,9,4,1.0,0,0,0,1,4,1.0,asocial
01JW975ABV8DXQEHP7WWZH726C,7,0,4,1.0,0,0,2,0,4,1.0,asocial
01JW975ABV8DXQEHP7WWZH726C,7,1,4,1.0,0,0,5,1,4,1.0,asocial
01JW975ABV8DXQEHP7WWZH726C,7,2,4,1.0,1,0,3,1,4,1.0,asocial
01JW975ABV8DXQEHP7WWZH726C,7,3,4,1.0,1,0,7,0,4,1.0,asocial
01JW975ABV8DXQEHP7WWZH726C,7,4,4,1.0,3,1,27,5,4,1.0,asocial
01JW975ABV8DXQEHP7WWZH726C,7,5,4,1.0,0,0,0,0,4,1.0,asocial
01JW975ABV8DXQEHP7WWZH726C,7,6,4,1.0,0,0,1,0,4,1.0,asocial
01JW975ABV8DXQEHP7WWZH726C,7,7,4,1.0,0,0,2,0,4,1.0,asocial
01JW975ABV8DXQEHP7WWZH726C,7,8,4,1.0,0,0,1,0,4,1.0,asocial
01JW975ABV8DXQEHP7WWZH726C,7,9,4,1.0,0,0,0,1,4,1.0,asocial
01JW975ABV8DXQEHP7WWZH726C,8,0,4,1.0,0,0,2,0,4,1.0,asocial
01JW975ABV8DXQEHP7WWZH726C,8,1,4,1.0,0,0,5,1,4,1.0,asocial
01JW975ABV8DXQEHP7WWZH726C,8,2,4,1.0,1,0,3,1,4,1.0,asocial
01JW975ABV8DXQEHP7WWZH726C,8,3,4,1.0,1,0,12,0,4,1.0,asocial
01JW975ABV8DXQEHP7WWZH726C,8,4,4,1.0,4,1,31,5,4,1.0,asocial
01JW975ABV8DXQEHP7WWZH726C,8,5,4,1.0,0,0,0,0,4,1.0,asocial
01JW975ABV8DXQEHP7WWZH726C,8,6,4,1.0,0,0,1,0,4,1.0,asocial
01JW975ABV8DXQEHP7WWZH726C,8,7,4,1.0,0,0,2,0,4,1.0,asocial
01JW975ABV8DXQEHP7WWZH726C,8,8,4,1.0,0,0,1,0,4,1.0,asocial
01JW975ABV8DXQEHP7WWZH726C,8,9,4,1.0,0,0,0,1,4,1.0,asocial
01JW975ABV8DXQEHP7WWZH726C,9,0,4,1.0,0,0,2,0,4,1.0,asocial
01JW975ABV8DXQEHP7WWZH726C,9,1,4,1.0,0,0,6,1,4,1.0,asocial
01JW975ABV8DXQEHP7WWZH726C,9,2,4,1.0,1,0,3,1,4,1.0,asocial
01JW975ABV8DXQEHP7WWZH726C,9,3,4,1.0,1,0,15,2,4,1.0,asocial
01JW975ABV8DXQEHP7WWZH726C,9,4,4,1.0,5,1,34,6,4,1.0,asocial
01JW975ABV8DXQEHP7WWZH726C,9,5,4,1.0,0,0,0,0,4,1.0,asocial
01JW975ABV8DXQEHP7WWZH726C,9,6,4,1.0,0,0,1,0,4,1.0,asocial
01JW975ABV8DXQEHP7WWZH726C,9,7,4,1.0,0,0,2,0,4,1.0,asocial
01JW975ABV8DXQEHP7WWZH726C,9,8,4,1.0,0,0,1,0,4,1.0,asocial
01JW975ABV8DXQEHP7WWZH726C,9,9,4,1.0,0,0,0,1,4,1.0,asocial
01JW975ABV8DXQEHP7WWZH726C,10,0,4,1.0,0,0,2,0,4,1.0,asocial
01JW975ABV8DXQEHP7WWZH726C,10,1,4,1.0,0,0,7,1,4,1.0,asocial
01JW975ABV8DXQEHP7WWZH726C,10,2,4,1.0,1,0,3,1,4,1.0,asocial
01JW975ABV8DXQEHP7WWZH726C,10,3,4,1.0,1,0,18,2,4,1.0,asocial
01JW975ABV8DXQEHP7WWZH726C,10,4,4,1.0,6,1,40,6,4,1.0,asocial
01JW975ABV8DXQEHP7WWZH726C,10,5,4,1.0,0,0,0,0,4,1.0,asocial
01JW975ABV8DXQEHP7WWZH726C,10,6,4,1.0,0,0,1,0,4,1.0,asocial
01JW975ABV8DXQEHP7WWZH726C,10,7,4,1.0,0,0,2,0,4,1.0,asocial
01JW975ABV8DXQEHP7WWZH726C,10,8,4,1.0,0,0,1,0,4,1.0,asocial
01JW975ABV8DXQEHP7WWZH726C,10,9,4,1.0,0,0,0,1,4,1.0,asocial
01JW975ABV8DXQEHP7WWZH726C,11,0,4,1.0,0,0,2,0,4,1.0,asocial
01JW975ABV8DXQEHP7WWZH726C,11,1,4,1.0,0,0,7,1,4,1.0,asocial
01JW975ABV8DXQEHP7WWZH726C,11,2,4,1.0,1,0,3,1,4,1.0,asocial
01JW975ABV8DXQEHP7WWZH726C,11,3,4,1.0,1,0,18,4,4,1.0,asocial
01JW975ABV8DXQEHP7WWZH726C,11,4,4,1.0,7,1,47,7,4,1.0,asocial
01JW975ABV8DXQEHP7WWZH726C,11,5,4,1.0,0,0,0,0,4,1.0,asocial
01JW975ABV8DXQEHP7WWZH726C,11,6,4,1.0,0,0,1,0,4,1.0,asocial
01JW975ABV8DXQEHP7WWZH726C,11,7,4,1.0,0,0,2,0,4,1.0,asocial
01JW975ABV8DXQEHP7WWZH726C,11,8,4,1.0,0,0,1,0,4,1.0,asocial
01JW975ABV8DXQEHP7WWZH726C,11,9,4,1.0,0,0,0,1,4,1.0,asocial
01JW975ABV8DXQEHP7WWZH726C,12,0,4,1.0,0,0,2,0,4,1.0,asocial
01JW975ABV8DXQEHP7WWZH726C,12,1,4,1.0,0,0,7,1,4,1.0,asocial
01JW975ABV8DXQEHP7WWZH726C,12,2,4,1.0,1,0,3,1,4,1.0,asocial
01JW975ABV8DXQEHP7WWZH726C,12,3,4,1.0,1,0,18,4,4,1.0,asocial
01JW975ABV8DXQEHP7WWZH726C,12,4,4,1.0,8,1,55,8,4,1.0,asocial
01JW975ABV8DXQEHP7WWZH726C,12,5,4,1.0,0,0,0,0,4,1.0,asocial
01JW975ABV8DXQEHP7WWZH726C,12,6,4,1.0,0,0,1,0,4,1.0,asocial
01JW975ABV8DXQEHP7WWZH726C,12,7,4,1.0,0,0,2,0,4,1.0,asocial
01JW975ABV8DXQEHP7WWZH726C,12,8,4,1.0,0,0,1,0,4,1.0,asocial
01JW975ABV8DXQEHP7WWZH726C,12,9,4,1.0,0,0,0,1,4,1.0,asocial
01JW975ABV8DXQEHP7WWZH726C,13,0,4,1.0,0,0,2,0,4,1.0,asocial
01JW975ABV8DXQEHP7WWZH726C,13,1,4,1.0,0,0,7,1,4,1.0,asocial
01JW975ABV8DXQEHP7WWZH726C,13,2,4,1.0,1,0,3,1,4,1.0,asocial
01JW975ABV8DXQEHP7WWZH726C,13,3,4,1.0,1,0,18,4,4,1.0,asocial
01JW975ABV8DXQEHP7WWZH726C,13,4,4,1.0,9,1,63,10,4,1.0,asocial
01JW975ABV8DXQEHP7WWZH726C,13,5,4,1.0,0,0,0,0,4,1.0,asocial
01JW975ABV8DXQEHP7WWZH726C,13,6,4,1.0,0,0,1,0,4,1.0,asocial
01JW975ABV8DXQEHP7WWZH726C,13,7,4,1.0,0,0,2,0,4,1.0,asocial
01JW975ABV8DXQEHP7WWZH726C,13,8,4,1.0,0,0,1,0,4,1.0,asocial
01JW975ABV8DXQEHP7WWZH726C,13,9,4,1.0,0,0,0,1,4,1.0,asocial
01JW975ABV8DXQEHP7WWZH726C,14,0,4,1.0,0,0,2,0,4,1.0,asocial
01JW975ABV8DXQEHP7WWZH726C,14,1,4,1.0,0,0,8,1,4,1.0,asocial
01JW975ABV8DXQEHP7WWZH726C,14,2,4,1.0,1,0,3,1,4,1.0,asocial
01JW975ABV8DXQEHP7WWZH726C,14,3,4,1.0,1,0,18,4,4,1.0,asocial
01JW975ABV8DXQEHP7WWZH726C,14,4,4,1.0,10,1,71,11,4,1.0,asocial
01JW975ABV8DXQEHP7WWZH726C,14,5,4,1.0,0,0,0,0,4,1.0,asocial
01JW975ABV8DXQEHP7WWZH726C,14,6,4,1.0,0,0,1,0,4,1.0,asocial
01JW975ABV8DXQEHP7WWZH726C,14,7,4,1.0,0,0,2,0,4,1.0,asocial
01JW975ABV8DXQEHP7WWZH726C,14,8,4,1.0,0,0,1,0,4,1.0,asocial
01JW975ABV8DXQEHP7WWZH726C,14,9,4,1.0,0,0,0,1,4,1.0,asocial
01JW975ABV8DXQEHP7WWZH726C,15,0,4,1.0,0,0,2,0,4,1.0,asocial
01JW975ABV8DXQEHP7WWZH726C,15,1,4,1.0,0,0,8,1,4,1.0,asocial
01JW975ABV8DXQEHP7WWZH726C,15,2,4,1.0,1,0,3,1,4,1.0,asocial
01JW975ABV8DXQEHP7WWZH726C,15,3,4,1.0,1,0,18,4,4,1.0,asocial
01JW975ABV8DXQEHP7WWZH726C,15,4,4,1.0,11,1,80,12,4,1.0,asocial
01JW975ABV8DXQEHP7WWZH726C,15,5,4,1.0,0,0,0,0,4,1.0,asocial
01JW975ABV8DXQEHP7WWZH726C,15,6,4,1.0,0,0,1,0,4,1.0,asocial
01JW975ABV8DXQEHP7WWZH726C,15,7,4,1.0,0,0,2,0,4,1.0,asocial
01JW975ABV8DXQEHP7WWZH726C,15,8,4,1.0,0,0,1,0,4,1.0,asocial
01JW975ABV8DXQEHP7WWZH726C,15,9,4,1.0,0,0,0,1,4,1.0,asocial
01JW975ABV8DXQEHP7WWZH726C,16,0,4,1.0,0,0,2,0,4,1.0,asocial
01JW975ABV8DXQEHP7WWZH726C,16,1,4,1.0,0,0,8,1,4,1.0,asocial
01JW975ABV8DXQEHP7WWZH726C,16,2,4,1.0,1,0,3,1,4,1.0,asocial
01JW975ABV8DXQEHP7WWZH726C,16,3,4,1.0,1,0,18,4,4,1.0,asocial
01JW975ABV8DXQEHP7WWZH726C,16,4,4,1.0,12,1,88,14,4,1.0,asocial
01JW975ABV8DXQEHP7WWZH726C,16,5,4,1.0,0,0,0,0,4,1.0,asocial
01JW975ABV8DXQEHP7WWZH726C,16,6,4,1.0,0,0,1,0,4,1.0,asocial
01JW975ABV8DXQEHP7WWZH726C,16,7,4,1.0,0,0,2,0,4,1.0,asocial
01JW975ABV8DXQEHP7WWZH726C,16,8,4,1.0,0,0,1,0,4,1.0,asocial
01JW975ABV8DXQEHP7WWZH726C,16,9,4,1.0,0,0,0,1,4,1.0,asocial
01JW975ABV8DXQEHP7WWZH726C,17,0,4,1.0,0,0,2,0,4,1.0,asocial
01JW975ABV8DXQEHP7WWZH726C,17,1,4,1.0,0,0,8,1,4,1.0,asocial
01JW975ABV8DXQEHP7WWZH726C,17,2,4,1.0,1,0,3,1,4,1.0,asocial
01JW975ABV8DXQEHP7WWZH726C,17,3,4,1.0,1,0,18,4,4,1.0,asocial
01JW975ABV8DXQEHP7WWZH726C,17,4,4,1.0,13,1,98,14,4,1.0,asocial
01JW975ABV8DXQEHP7WWZH726C,17,5,4,1.0,0,0,0,0,4,1.0,asocial
01JW975ABV8DXQEHP7WWZH726C,17,6,4,1.0,0,0,1,0,4,1.0,asocial
01JW975ABV8DXQEHP7WWZH726C,17,7,4,1.0,0,0,2,0,4,1.0,asocial
01JW975ABV8DXQEHP7WWZH726C,17,8,4,1.0,0,0,1,0,4,1.0,asocial
01JW975ABV8DXQEHP7WWZH726C,17,9,4,1.0,0,0,0,1,4,1.0,asocial
01JW975ABV8DXQEHP7WWZH726C,18,0,4,1.0,0,0,2,0,4,1.0,asocial
01JW975ABV8DXQEHP7WWZH726C,18,1,4,1.0,0,0,8,1,4,1.0,asocial
01JW975ABV8DXQEHP7WWZH726C,18,2,4,1.0,1,0,3,1,4,1.0,asocial
01JW975ABV8DXQEHP7WWZH726C,18,3,4,1.0,1,0,19,4,4,1.0,asocial
01JW975ABV8DXQEHP7WWZH726C,18,4,4,1.0,14,1,105,16,4,1.0,asocial
01JW975ABV8DXQEHP7WWZH726C,18,5,4,1.0,0,0,0,0,4,1.0,asocial
01JW975ABV8DXQEHP7WWZH726C,18,6,4,1.0,0,0,1,0,4,1.0,asocial
01JW975ABV8DXQEHP7WWZH726C,18,7,4,1.0,0,0,2,0,4,1.0,asocial
01JW975ABV8DXQEHP7WWZH726C,18,8,4,1.0,0,0,1,0,4,1.0,asocial
01JW975ABV8DXQEHP7WWZH726C,18,9,4,1.0,0,0,0,1,4,1.0,asocial
01JW975ABV8DXQEHP7WWZH726C,19,0,4,1.0,0,0,2,0,4,1.0,asocial
01JW975ABV8DXQEHP7WWZH726C,19,1,4,1.0,0,0,8,1,4,1.0,asocial
01JW975ABV8DXQEHP7WWZH726C,19,2,4,1.0,1,0,3,1,4,1.0,asocial
01JW975ABV8DXQEHP7WWZH726C,19,3,4,1.0,1,0,20,4,4,1.0,asocial
01JW975ABV8DXQEHP7WWZH726C,19,4,4,1.0,15,1,114,16,4,1.0,asocial
01JW975ABV8DXQEHP7WWZH726C,19,5,4,1.0,0,0,0,0,4,1.0,asocial
01JW975ABV8DXQEHP7WWZH726C,19,6,4,1.0,0,0,1,0,4,1.0,asocial
01JW975ABV8DXQEHP7WWZH726C,19,7,4,1.0,0,0,2,0,4,1.0,asocial
01JW975ABV8DXQEHP7WWZH726C,19,8,4,1.0,0,0,1,0,4,1.0,asocial
01JW975ABV8DXQEHP7WWZH726C,19,9,4,1.0,0,0,0,1,4,1.0,asocial
01JW975ABV8DXQEHP7WWZH726C,20,0,4,1.0,0,0,2,0,4,1.0,asocial
