participant_id,round,arm,choice,reward,own_success,own_failure,group_success,group_failure,prev_choice,prev_reward,condition
01JVXC39FGS30GXDG3APMH9E18,1,0,7,1.0,0,0,0,0,-1,,asocial
01JVXC39FGS30GXDG3APMH9E18,1,1,7,1.0,0,0,0,0,-1,,asocial
01JVXC39FGS30GXDG3APMH9E18,1,2,7,1.0,0,0,0,0,-1,,asocial
01JVXC39FGS30GXDG3APMH9E18,1,3,7,1.0,0,0,0,0,-1,,asocial
01JVXC39FGS30GXDG3APMH9E18,1,4,7,1.0,0,0,0,0,-1,,asocial
01JVXC39FGS30GXDG3APMH9E18,1,5,7,1.0,0,0,0,0,-1,,asocial
01JVXC39FGS30GXDG3APMH9E18,1,6,7,1.0,0,0,0,0,-1,,asocial
01JVXC39FGS30GXDG3APMH9E18,1,7,7,1.0,0,0,0,0,-1,,asocial
01JVXC39FGS30GXDG3APMH9E18,1,8,7,1.0,0,0,0,0,-1,,asocial
01JVXC39FGS30GXDG3APMH9E18,1,9,7,1.0,0,0,0,0,-1,,asocial
01JVXC39FGS30GXDG3APMH9E18,2,0,7,1.0,0,0,1,0,7,1.0,asocial
01JVXC39FGS30GXDG3APMH9E18,2,1,7,1.0,0,0,1,0,7,1.0,asocial
01JVXC39FGS30GXDG3APMH9E18,2,2,7,1.0,0,0,1,0,7,1.0,asocial
01JVXC39FGS30GXDG3APMH9E18,2,3,7,1.0,0,0,1,0,7,1.0,asocial
01JVXC39FGS30GXDG3APMH9E18,2,4,7,1.0,0,0,1,0,7,1.0,asocial
01JVXC39FGS30GXDG3APMH9E18,2,5,7,1.0,0,0,1,0,7,1.0,asocial
01JVXC39FGS30GXDG3APMH9E18,2,6,7,1.0,0,0,1,0,7,1.0,asocial
01JVXC39FGS30GXDG3APMH9E18,2,7,7,1.0,1,0,1,0,7,1.0,asocial
01JVXC39FGS30GXDG3APMH9E18,2,8,7,1.0,0,0,1,0,7,1.0,asocial
01JVXC39FGS30GXDG3APMH9E18,2,9,7,1.0,0,0,1,0,7,1.0,asocial
01JVXC39FGS30GXDG3APMH9E18,3,0,3,1.0,0,0,2,0,7,1.0,asocial
01JVXC39FGS30GXDG3APMH9E18,3,1,3,1.0,0,0,2,0,7,1.0,asocial
01JVXC39FGS30GXDG3APMH9E18,3,2,3,1.0,0,0,2,0,7,1.0,asocial
01JVXC39FGS30GXDG3APMH9E18,3,3,3,1.0,0,0,1,1,7,1.0,asocial
01JVXC39FGS30GXDG3APMH9E18,3,4,3,1.0,0,0,2,0,7,1.0,asocial
01JVXC39FGS30GXDG3APMH9E18,3,5,3,1.0,0,0,2,0,7,1.0,asocial
01JVXC39FGS30GXDG3APMH9E18,3,6,3,1.0,0,0,2,0,7,1.0,asocial
01JVXC39FGS30GXDG3APMH9E18,3,7,3,1.0,2,0,2,0,7,1.0,asocial
01JVXC39FGS30GXDG3APMH9E18,3,8,3,1.0,0,0,2,0,7,1.0,asocial
01JVXC39FGS30GXDG3APMH9E18,3,9,3,1.0,0,0,2,0,7,1.0,asocial
01JVXC39FGS30GXDG3APMH9E18,4,0,2,1.0,0,0,3,0,3,1.0,asocial
01JVXC39FGS30GXDG3APMH9E18,4,1,2,1.0,0,0,3,0,3,1.0,asocial
01JVXC39FGS30GXDG3APMH9E18,4,2,2,1.0,0,0,3,0,3,1.0,asocial
01JVXC39FGS30GXDG3APMH9E18,4,3,2,1.0,1,0,2,2,3,1.0,asocial
01JVXC39FGS30GXDG3APMH9E18,4,4,2,1.0,0,0,3,0,3,1.0,asocial
01JVXC39FGS30GXDG3APMH9E18,4,5,2,1.0,0,0,2,0,3,1.0,asocial
01JVXC39FGS30GXDG3APMH9E18,4,6,2,1.0,0,0,3,0,3,1.0,asocial
01JVXC39FGS30GXDG3APMH9E18,4,7,2,1.0,2,0,2,0,3,1.0,asocial
01JVXC39FGS30GXDG3APMH9E18,4,8,2,1.0,0,0,3,0,3,1.0,asocial
01JVXC39FGS30GXDG3APMH9E18,4,9,2,1.0,0,0,3,1,3,1.0,asocial
01JVXC39FGS30GXDG3APMH9E18,5,0,6,1.0,0,0,4,0,2,1.0,asocial
01JVXC39FGS30GXDG3APMH9E18,5,1,6,1.0,0,0,4,0,2,1.0,asocial
01JVXC39FGS30GXDG3APMH9E18,5,2,6,1.0,1,0,5,0,2,1.0,asocial
01JVXC39FGS30GXDG3APMH9E18,5,3,6,1.0,1,0,3,2,2,1.0,asocial
01JVXC39FGS30GXDG3APMH9E18,5,4,6,1.0,0,0,4,0,2,1.0,asocial
01JVXC39FGS30GXDG3APMH9E18,5,5,6,1.0,0,0,3,0,2,1.0,asocial
01JVXC39FGS30GXDG3APMH9E18,5,6,6,1.0,0,0,4,0,2,1.0,asocial
01JVXC39FGS30GXDG3APMH9E18,5,7,6,1.0,2,0,2,0,2,1.0,asocial
01JVXC39FGS30GXDG3APMH9E18,5,8,6,1.0,0,0,4,0,2,1.0,asocial
01JVXC39FGS30GXDG3APMH9E18,5,9,6,1.0,0,0,4,1,2,1.0,asocial
01JVXC39FGS30GXDG3APMH9E18,6,0,5,1.0,0,0,5,0,6,1.0,asocial
01JVXC39FGS30GXDG3APMH9E18,6,1,5,1.0,0,0,5,0,6,1.0,asocial
01JVXC39FGS30GXDG3APMH9E18,6,2,5,1.0,1,0,6,0,6,1.0,asocial
01JVXC39FGS30GXDG3APMH9E18,6,3,5,1.0,1,0,4,2,6,1.0,asocial
01JVXC39FGS30GXDG3APMH9E18,6,4,5,1.0,0,0,4,0,6,1.0,asocial
01JVXC39FGS30GXDG3APMH9E18,6,5,5,1.0,0,0,4,0,6,1.0,asocial
01JVXC39FGS30GXDG3APMH9E18,6,6,5,1.0,1,0,6,0,6,1.0,asocial
01JVXC39FGS30GXDG3APMH9E18,6,7,5,1.0,2,0,2,0,6,1.0,asocial
01JVXC39FGS30GXDG3APMH9E18,6,8,5,1.0,0,0,5,0,6,1.0,asocial
01JVXC39FGS30GXDG3APMH9E18,6,9,5,1.0,0,0,6,1,6,1.0,asocial
01JVXC39FGS30GXDG3APMH9E18,7,0,0,1.0,0,0,6,0,5,1.0,asocial
01JVXC39FGS30GXDG3APMH9E18,7,1,0,1.0,0,0,7,0,5,1.0,asocial
01JVXC39FGS30GXDG3APMH9E18,7,2,0,1.0,1,0,7,0,5,1.0,asocial
01JVXC39FGS30GXDG3APMH9E18,7,3,0,1.0,1,0,5,2,5,1.0,asocial
01JVXC39FGS30GXDG3APMH9E18,7,4,0,1.0,0,0,5,0,5,1.0,asocial
01JVXC39FGS30GXDG3APMH9E18,7,5,0,1.0,1,0,5,0,5,1.0,asocial
01JVXC39FGS30GXDG3APMH9E18,7,6,0,1.0,1,0,7,0,5,1.0,asocial
01JVXC39FGS30GXDG3APMH9E18,7,7,0,1.0,2,0,2,0,5,1.0,asocial
01JVXC39FGS30GXDG3APMH9E18,7,8,0,1.0,0,0,6,0,5,1.0,asocial
01JVXC39FGS30GXDG3APMH9E18,7,9,0,1.0,0,0,7,1,5,1.0,asocial
01JVXC39FGS30GXDG3APMH9E18,8,0,4,1.0,1,0,8,0,0,1.0,asocial
01JVXC39FGS30GXDG3APMH9E18,8,1,4,1.0,0,0,8,1,0,1.0,asocial
01JVXC39FGS30GXDG3APMH9E18,8,2,4,1.0,1,0,8,0,0,1.0,asocial
01JVXC39FGS30GXDG3APMH9E18,8,3,4,1.0,1,0,6,2,0,1.0,asocial
01JVXC39FGS30GXDG3APMH9E18,8,4,4,1.0,0,0,6,0,0,1.0,asocial
01JVXC39FGS30GXDG3APMH9E18,8,5,4,1.0,1,0,5,0,0,1.0,asocial
01JVXC39FGS30GXDG3APMH9E18,8,6,4,1.0,1,0,7,1,0,1.0,asocial
01JVXC39FGS30GXDG3APMH9E18,8,7,4,1.0,2,0,2,0,0,1.0,asocial
01JVXC39FGS30GXDG3APMH9E18,8,8,4,1.0,0,0,7,0,0,1.0,asocial
01JVXC39FGS30GXDG3APMH9E18,8,9,4,1.0,0,0,8,1,0,1.0,asocial
01JVXC39FGS30GXDG3APMH9E18,9,0,1,1.0,1,0,9,0,4,1.0,asocial
01JVXC39FGS30GXDG3APMH9E18,9,1,1,1.0,0,0,9,1,4,1.0,asocial
01JVXC39FGS30GXDG3APMH9E18,9,2,1,1.0,1,0,9,0,4,1.0,asocial
01JVXC39FGS30GXDG3APMH9E18,9,3,1,1.0,1,0,7,2,4,1.0,asocial
01JVXC39FGS30GXDG3APMH9E18,9,4,1,1.0,1,0,8,0,4,1.0,asocial
01JVXC39FGS30GXDG3APMH9E18,9,5,1,1.0,1,0,6,0,4,1.0,asocial
01JVXC39FGS30GXDG3APMH9E18,9,6,1,1.0,1,0,8,1,4,1.0,asocial
01JVXC39FGS30GXDG3APMH9E18,9,7,1,1.0,2,0,2,0,4,1.0,asocial
01JVXC39FGS30GXDG3APMH9E18,9,8,1,1.0,0,0,8,0,4,1.0,asocial
01JVXC39FGS30GXDG3APMH9E18,9,9,1,1.0,0,0,9,1,4,1.0,asocial
01JVXC39FGS30GXDG3APMH9E18,10,0,1,1.0,1,0,10,0,1,1.0,asocial
01JVXC39FGS30GXDG3APMH9E18,10,1,1,1.0,1,0,11,1,1,1.0,asocial
01JVXC39FGS30GXDG3APMH9E18,10,2,1,1.0,1,0,10,0,1,1.0,asocial
01JVXC39FGS30GXDG3APMH9E18,10,3,1,1.0,1,0,8,2,1,1.0,asocial
01JVXC39FGS30GXDG3APMH9E18,10,4,1,1.0,1,0,9,0,1,1.0,asocial
01JVXC39FGS30GXDG3APMH9E18,10,5,1,1.0,1,0,7,0,1,1.0,asocial
01JVXC39FGS30GXDG3APMH9E18,10,6,1,1.0,1,0,8,2,1,1.0,asocial
01JVXC39FGS30GXDG3APMH9E18,10,7,1,1.0,2,0,2,0,1,1.0,asocial
01JVXC39FGS30GXDG3APMH9E18,10,8,1,1.0,0,0,9,0,1,1.0,asocial
01JVXC39FGS30GXDG3APMH9E18,10,9,1,1.0,0,0,9,2,1,1.0,asocial
01JVXC39FGS30GXDG3APMH9E18,11,0,2,1.0,1,0,11,0,1,1.0,asocial
01JVXC39FGS30GXDG3APMH9E18,11,1,2,1.0,2,0,12,2,1,1.0,asocial
01JVXC39FGS30GXDG3APMH9E18,11,2,2,1.0,1,0,11,0,1,1.0,asocial
01JVXC39FGS30GXDG3APMH9E18,11,3,2,1.0,1,0,9,2,1,1.0,asocial
01JVXC39FGS30GXDG3APMH9E18,11,4,2,1.0,1,0,10,0,1,1.0,asocial
01JVXC39FGS30GXDG3APMH9E18,11,5,2,1.0,1,0,8,0,1,1.0,asocial
01JVXC39FGS30GXDG3APMH9E18,11,6,2,1.0,1,0,9,2,1,1.0,asocial
01JVXC39FGS30GXDG3APMH9E18,11,7,2,1.0,2,0,2,0,1,1.0,asocial
01JVXC39FGS30GXDG3APMH9E18,11,8,2,1.0,0,0,10,0,1,1.0,asocial
01JVXC39FGS30GXDG3APMH9E18,11,9,2,1.0,0,0,10,2,1,1.0,asocial
01JVXC39FGS30GXDG3APMH9E18,12,0,2,1.0,1,0,12,0,2,1.0,asocial
01JVXC39FGS30GXDG3APMH9E18,12,1,2,1.0,2,0,13,2,2,1.0,asocial
01JVXC39FGS30GXDG3APMH9E18,12,2,2,1.0,2,0,13,0,2,1.0,asocial
01JVXC39FGS30GXDG3APMH9E18,12,3,2,1.0,1,0,10,2,2,1.0,asocial
01JVXC39FGS30GXDG3APMH9E18,12,4,2,1.0,1,0,11,0,2,1.0,asocial
01JVXC39FGS30GXDG3APMH9E18,12,5,2,1.0,1,0,9,0,2,1.0,asocial
01JVXC39FGS30GXDG3APMH9E18,12,6,2,1.0,1,0,10,2,2,1.0,asocial
01JVXC39FGS30GXDG3APMH9E18,12,7,2,1.0,2,0,2,0,2,1.0,asocial
01JVXC39FGS30GXDG3APMH9E18,12,8,2,1.0,0,0,11,0,2,1.0,asocial
01JVXC39FGS30GXDG3APMH9E18,12,9,2,1.0,0,0,11,2,2,1.0,asocial
01JVXC39FGS30GXDG3APMH9E18,13,0,2,0.0,1,0,13,0,2,1.0,asocial
01JVXC39FGS30GXDG3APMH9E18,13,1,2,0.0,2,0,14,2,2,1.0,asocial
01JVXC39FGS30GXDG3APMH9E18,13,2,2,0.0,3,0,15,0,2,1.0,asocial
01JVXC39FGS30GXDG3APMH9E18,13,3,2,0.0,1,0,10,3,2,1.0,asocial
01JVXC39FGS30GXDG3APMH9E18,13,4,2,0.0,1,0,12,0,2,1.0,asocial
01JVXC39FGS30GXDG3APMH9E18,13,5,2,0.0,1,0,9,1,2,1.0,asocial
01JVXC39FGS30GXDG3APMH9E18,13,6,2,0.0,1,0,11,2,2,1.0,asocial
01JVXC39FGS30GXDG3APMH9E18,13,7,2,0.0,2,0,2,0,2,1.0,asocial
01JVXC39FGS30GXDG3APMH9E18,13,8,2,0.0,0,0,12,0,2,1.0,asocial
01JVXC39FGS30GXDG3APMH9E18,13,9,2,0.0,0,0,12,2,2,1.0,asocial
01JVXC39FGS30GXDG3APMH9E18,14,0,8,1.0,1,0,14,0,2,0.0,asocial
01JVXC39FGS30GXDG3APMH9E18,14,1,8,1.0,2,0,15,2,2,0.0,asocial
01JVXC39FGS30GXDG3APMH9E18,14,2,8,1.0,3,1,16,1,2,0.0,asocial
01JVXC39FGS30GXDG3APMH9E18,14,3,8,1.0,1,0,11,3,2,0.0,asocial
01JVXC39FGS30GXDG3APMH9E18,14,4,8,1.0,1,0,13,0,2,0.0,asocial
01JVXC39FGS30GXDG3APMH9E18,14,5,8,1.0,1,0,10,1,2,0.0,asocial
01JVXC39FGS30GXDG3APMH9E18,14,6,8,1.0,1,0,12,2,2,0.0,asocial
01JVXC39FGS30GXDG3APMH9E18,14,7,8,1.0,2,0,2,0,2,0.0,asocial
01JVXC39FGS30GXDG3APMH9E18,14,8,8,1.0,0,0,13,0,2,0.0,asocial
01JVXC39FGS30GXDG3APMH9E18,14,9,8,1.0,0,0,13,2,2,0.0,asocial
01JVXC39FGS30GXDG3APMH9E18,15,0,9,1.0,1,0,15,0,8,1.0,asocial
01JVXC39FGS30GXDG3APMH9E18,15,1,9,1.0,2,0,16,2,8,1.0,asocial
01JVXC39FGS30GXDG3APMH9E18,15,2,9,1.0,3,1,17,1,8,1.0,asocial
01JVXC39FGS30GXDG3APMH9E18,15,3,9,1.0,1,0,12,3,8,1.0,asocial
01JVXC39FGS30GXDG3APMH9E18,15,4,9,1.0,1,0,14,0,8,1.0,asocial
01JVXC39FGS30GXDG3APMH9E18,15,5,9,1.0,1,0,11,1,8,1.0,asocial
01JVXC39FGS30GXDG3APMH9E18,15,6,9,1.0,1,0,13,2,8,1.0,asocial
01JVXC39FGS30GXDG3APMH9E18,15,7,9,1.0,2,0,2,0,8,1.0,asocial
01JVXC39FGS30GXDG3APMH9E18,15,8,9,1.0,1,0,15,0,8,1.0,asocial
01JVXC39FGS30GXDG3APMH9E18,15,9,9,1.0,0,0,14,2,8,1.0,asocial
01JVXC39FGS30GXDG3APMH9E18,16,0,0,1.0,1,0,16,0,9,1.0,asocial
01JVXC39FGS30GXDG3APMH9E18,16,1,0,1.0,2,0,17,2,9,1.0,asocial
01JVXC39FGS30GXDG3APMH9E18,16,2,0,1.0,3,1,18,1,9,1.0,asocial
01JVXC39FGS30GXDG3APMH9E18,16,3,0,1.0,1,0,13,3,9,1.0,asocial
01JVXC39FGS30GXDG3APMH9E18,16,4,0,1.0,1,0,15,0,9,1.0,asocial
01JVXC39FGS30GXDG3APMH9E18,16,5,0,1.0,1,0,12,1,9,1.0,asocial
01JVXC39FGS30GXDG3APMH9E18,16,6,0,1.0,1,0,14,2,9,1.0,asocial
01JVXC39FGS30GXDG3APMH9E18,16,7,0,1.0,2,0,2,0,9,1.0,asocial
01JVXC39FGS30GXDG3APMH9E18,16,8,0,1.0,1,0,16,0,9,1.0,asocial
01JVXC39FGS30GXDG3APMH9E18,16,9,0,1.0,1,0,16,2,9,1.0,asocial
01JVXC39FGS30GXDG3APMH9E18,17,0,4,1.0,2,0,18,0,0,1.0,asocial
01JVXC39FGS30GXDG3APMH9E18,17,1,4,1.0,2,0,18,2,0,1.0,asocial
01JVXC39FGS30GXDG3APMH9E18,17,2,4,1.0,3,1,19,1,0,1.0,asocial
01JVXC39FGS30GXDG3APMH9E18,17,3,4,1.0,1,0,14,3,0,1.0,asocial
01JVXC39FGS30GXDG3APMH9E18,17,4,4,1.0,1,0,16,0,0,1.0,asocial
01JVXC39FGS30GXDG3APMH9E18,17,5,4,1.0,1,0,13,1,0,1.0,asocial
01JVXC39FGS30GXDG3APMH9E18,17,6,4,1.0,1,0,15,2,0,1.0,asocial
01JVXC39FGS30GXDG3APMH9E18,17,7,4,1.0,2,0,2,0,0,1.0,asocial
01JVXC39FGS30GXDG3APMH9E18,17,8,4,1.0,1,0,17,0,0,1.0,asocial
01JVXC39FGS30GXDG3APMH9E18,17,9,4,1.0,1,0,17,2,0,1.0,asocial
01JVXC39FGS30GXDG3APMH9E18,18,0,6,1.0,2,0,19,0,4,1.0,asocial
01JVXC39FGS30GXDG3APMH9E18,18,1,6,1.0,2,0,18,3,4,1.0,asocial
01JVXC39FGS30GXDG3APMH9E18,18,2,6,1.0,3,1,20,1,4,1.0,asocial
01JVXC39FGS30GXDG3APMH9E18,18,3,6,1.0,1,0,15,3,4,1.0,asocial
01JVXC39FGS30GXDG3APMH9E18,18,4,6,1.0,2,0,18,0,4,1.0,asocial
01JVXC39FGS30GXDG3APMH9E18,18,5,6,1.0,1,0,14,1,4,1.0,asocial
01JVXC39FGS30GXDG3APMH9E18,18,6,6,1.0,1,0,15,3,4,1.0,asocial
01JVXC39FGS30GXDG3APMH9E18,18,7,6,1.0,2,0,2,0,4,1.0,asocial
01JVXC39FGS30GXDG3APMH9E18,18,8,6,1.0,1,0,18,0,4,1.0,asocial
01JVXC39FGS30GXDG3APMH9E18,18,9,6,1.0,1,0,18,2,4,1.0,asocial
01JVXC39FGS30GXDG3APMH9E18,19,0,5,1.0,2,0,20,0,6,1.0,asocial
01JVXC39FGS30GXDG3APMH9E18,19,1,5,1.0,2,0,19,3,6,1.0,asocial
01JVXC39FGS30GXDG3APMH9E18,19,2,5,1.0,3,1,20,2,6,1.0,asocial
01JVXC39FGS30GXDG3APMH9E18,19,3,5,1.0,1,0,16,3,6,1.0,asocial
01JVXC39FGS30GXDG3APMH9E18,19,4,5,1.0,2,0,19,0,6,1.0,asocial
01JVXC39FGS30GXDG3APMH9E18,19,5,5,1.0,1,0,15,1,6,1.0,asocial
01JVXC39FGS30GXDG3APMH9E18,19,6,5,1.0,2,0,17,3,6,1.0,asocial
01JVXC39FGS30GXDG3APMH9E18,19,7,5,1.0,2,0,2,0,6,1.0,asocial
01JVXC39FGS30GXDG3APMH9E18,19,8,5,1.0,1,0,19,0,6,1.0,asocial
01JVXC39FGS30GXDG3APMH9E18,19,9,5,1.0,1,0,19,2,6,1.0,asocial
01JVXC39FGS30GXDG3APMH9E18,20,0,3,1.0,2,0,21,0,5,1.0,asocial
01JVXC39FGS30GXDG3APMH9E18,20,1,3,1.0,2,0,20,3,5,1.0,asocial
01JVXC39FGS30GXDG3APMH9E18,20,2,3,1.0,3,1,21,2,5,1.0,asocial
01JVXC39FGS30GXDG3APMH9E18,20,3,3,1.0,1,0,17,3,5,1.0,asocial
01JVXC39FGS30GXDG3APMH9E18,20,4,3,1.0,2,0,20,0,5,1.0,asocial
01JVXC39FGS30GXDG3APMH9E18,20,5,3,1.0,2,0,17,1,5,1.0,asocial
01JVXC39FGS30GXDG3APMH9E18,20,6,3,1.0,2,0,18,3,5,1.0,asocial
01JVXC39FGS30GXDG3APMH9E18,20,7,3,1.0,2,0,2,0,5,1.0,asocial
01JVXC39FGS30GXDG3APMH9E18,20,8,3,1.0,1,0,20,0,5,1.0,asocial
01JVXC39FGS30GXDG3APMH9E18,20,9,3,1.0,1,0,20,2,5,1.0,asocial
01JVXC39FGS30GXDG3APMH9E18,21,0,8,1.0,2,0,21,1,3,1.0,asocial
01JVXC39FGS30GXDG3APMH9E18,21,1,8,1.0,2,0,21,3,3,1.0,asocial
01JVXC39FGS30GXDG3APMH9E18,21,2,8,1.0,3,1,22,2,3,1.0,asocial
01JVXC39FGS30GXDG3APMH9E18,21,3,8,1.0,2,0,19,3,3,1.0,asocial
01JVXC39FGS30GXDG3APMH9E18,21,4,8,1.0,2,0,21,0,3,1.0,asocial
01JVXC39FGS30GXDG3APMH9E18,21,5,8,1.0,2,0,18,1,3,1.0,asocial
01JVXC39FGS30GXDG3APMH9E18,21,6,8,1.0,2,0,19,3,3,1.0,asocial
01JVXC39FGS30GXDG3APMH9E18,21,7,8,1.0,2,0,2,0,3,1.0,asocial
01JVXC39FGS30GXDG3APMH9E18,21,8,8,1.0,1,0,20,1,3,1.0,asocial
01JVXC39FGS30GXDG3APMH9E18,21,9,8,1.0,1,0,21,2,3,1.0,asocial
01JVXC39FGS30GXDG3APMH9E18,22,0,9,1.0,2,0,22,1,8,1.0,asocial
01JVXC39FGS30GXDG3APMH9E18,22,1,9,1.0,2,0,22,3,8,1.0,asocial
01JVXC39FGS30GXDG3APMH9E18,22,2,9,1.0,3,1,23,2,8,1.0,asocial
01JVXC39FGS30GXDG3APMH9E18,22,3,9,1.0,2,0,20,3,8,1.0,asocial
01JVXC39FGS30GXDG3APMH9E18,22,4,9,1.0,2,0,22,0,8,1.0,asocial
01JVXC39FGS30GXDG3APMH9E18,22,5,9,1.0,2,0,19,1,8,1.0,asocial
01JVXC39FGS30GXDG3APMH9E18,22,6,9,1.0,2,0,20,3,8,1.0,asocial
01JVXC39FGS30GXDG3APMH9E18,22,7,9,1.0,2,0,2,0,8,1.0,asocial
01JVXC39FGS30GXDG3APMH9E18,22,8,9,1.0,2,0,22,1,8,1.0,asocial
01JVXC39FGS30GXDG3APMH9E18,22,9,9,1.0,1,0,22,2,8,1.0,asocial
01JVXC39FGS30GXDG3APMH9E18,23,0,7,1.0,2,0,22,2,9,1.0,asocial
01JVXC39FGS30GXDG3APMH9E18,23,1,7,1.0,2,0,23,3,9,1.0,asocial
01JVXC39FGS30GXDG3APMH9E18,23,2,7,1.0,3,1,24,2,9,1.0,asocial
01JVXC39FGS30GXDG3APMH9E18,23,3,7,1.0,2,0,20,4,9,1.0,asocial
01JVXC39FGS30GXDG3APMH9E18,23,4,7,1.0,2,0,23,0,9,1.0,asocial
01JVXC39FGS30GXDG3APMH9E18,23,5,7,1.0,2,0,20,1,9,1.0,asocial
01JVXC39FGS30GXDG3APMH9E18,23,6,7,1.0,2,0,21,3,9,1.0,asocial
01JVXC39FGS30GXDG3APMH9E18,23,7,7,1.0,2,0,2,0,9,1.0,asocial
01JVXC39FGS30GXDG3APMH9E18,23,8,7,1.0,2,0,23,1,9,1.0,asocial
01JVXC39FGS30GXDG3APMH9E18,23,9,7,1.0,2,0,24,2,9,1.0,asocial
01JVXC39FGS30GXDG3APMH9E18,24,0,9,1.0,2,0,23,2,7,1.0,asocial
01JVXC39FGS30GXDG3APMH9E18,24,1,9,1.0,2,0,24,3,7,1.0,asocial
01JVXC39FGS30GXDG3APMH9E18,24,2,9,1.0,3,1,25,2,7,1.0,asocial
01JVXC39FGS30GXDG3APMH9E18,24,3,9,1.0,2,0,21,4,7,1.0,asocial
01JVXC39FGS30GXDG3APMH9E18,24,4,9,1.0,2,0,24,0,7,1.0,asocial
01JVXC39FGS30GXDG3APMH9E18,24,5,9,1.0,2,0,21,1,7,1.0,asocial
01JVXC39FGS30GXDG3APMH9E18,24,6,9,1.0,2,0,22,3,7,1.0,asocial
01JVXC39FGS30GXDG3APMH9E18,24,7,9,1.0,3,0,3,0,7,1.0,asocial
01JVXC39FGS30GXDG3APMH9E18,24,8,9,1.0,2,0,24,1,7,1.0,asocial
01JVXC39FGS30GXDG3APMH9E18,24,9,9,1.0,2,0,25,2,7,1.0,asocial
01JVXC39FGS30GXDG3APMH9E18,25,0,8,0.0,2,0,23,3,9,1.0,asocial
01JVXC39FGS30GXDG3APMH9E18,25,1,8,0.0,2,0,25,3,9,1.0,asocial
01JVXC39FGS30GXDG3APMH9E18,25,2,8,0.0,3,1,26,2,9,1.0,asocial
01JVXC39FGS30GXDG3APMH9E18,25,3,8,0.0,2,0,22,4,9,1.0,asocial
01JVXC39FGS30GXDG3APMH9E18,25,4,8,0.0,2,0,25,0,9,1.0,asocial
01JVXC39FGS30GXDG3APMH9E18,25,5,8,0.0,2,0,22,1,9,1.0,asocial
01JVXC39FGS30GXDG3APMH9E18,25,6,8,0.0,2,0,23,3,9,1.0,asocial
01JVXC39FGS30GXDG3APMH9E18,25,7,8,0.0,3,0,3,0,9,1.0,asocial
01JVXC39FGS30GXDG3APMH9E18,25,8,8,0.0,2,0,25,1,9,1.0,asocial
01JVXC39FGS30GXDG3APMH9E18,25,9,8,0.0,3,0,26,3,9,1.0,asocial
01JVXC39FGS30GXDG3APMH9E18,26,0,3,1.0,2,0,23,4,8,0.0,asocial
01JVXC39FGS30GXDG3APMH9E18,26,1,3,1.0,2,0,25,3,8,0.0,asocial
01JVXC39FGS30GXDG3APMH9E18,26,2,3,1.0,3,1,27,2,8,0.0,asocial
01JVXC39FGS30GXDG3APMH9E18,26,3,3,1.0,2,0,24,4,8,0.0,asocial
01JVXC39FGS30GXDG3APMH9E18,26,4,3,1.0,2,0,26,0,8,0.0,asocial
01JVXC39FGS30GXDG3APMH9E18,26,5,3,1.0,2,0,23,1,8,0.0,asocial
01JVXC39FGS30GXDG3APMH9E18,26,6,3,1.0,2,0,24,3,8,0.0,asocial
01JVXC39FGS30GXDG3APMH9E18,26,7,3,1.0,3,0,3,0,8,0.0,asocial
01JVXC39FGS30GXDG3APMH9E18,26,8,3,1.0,2,1,25,3,8,0.0,asocial
01JVXC39FGS30GXDG3APMH9E18,26,9,3,1.0,3,0,27,3,8,0.0,asocial
01JVXC39FGS30GXDG3APMH9E18,27,0,5,1.0,2,0,24,4,3,1.0,asocial
01JVXC39FGS30GXDG3APMH9E18,27,1,5,1.0,2,0,26,3,3,1.0,asocial
01JVXC39FGS30GXDG3APMH9E18,27,2,5,1.0,3,1,28,2,3,1.0,asocial
01JVXC39FGS30GXDG3APMH9E18,27,3,5,1.0,3,0,27,4,3,1.0,asocial
01JVXC39FGS30GXDG3APMH9E18,27,4,5,1.0,2,0,26,0,3,1.0,asocial
01JVXC39FGS30GXDG3APMH9E18,27,5,5,1.0,2,0,24,1,3,1.0,asocial
01JVXC39FGS30GXDG3APMH9E18,27,6,5,1.0,2,0,25,3,3,1.0,asocial
01JVXC39FGS30GXDG3APMH9E18,27,7,5,1.0,3,0,3,0,3,1.0,asocial
01JVXC39FGS30GXDG3APMH9E18,27,8,5,1.0,2,1,26,3,3,1.0,asocial
01JVXC39FGS30GXDG3APMH9E18,27,9,5,1.0,3,0,28,3,3,1.0,asocial
01JVXC39FGS30GXDG3APMH9E18,28,0,2,0.0,2,0,24,5,5,1.0,asocial
01JVXC39FGS30GXDG3APMH9E18,28,1,2,0.0,2,0,26,3,5,1.0,asocial
01JVXC39FGS30GXDG3APMH9E18,28,2,2,0.0,3,1,29,2,5,1.0,asocial
01JVXC39FGS30GXDG3APMH9E18,28,3,2,0.0,3,0,29,4,5,1.0,asocial
01JVXC39FGS30GXDG3APMH9E18,28,4,2,0.0,2,0,26,0,5,1.0,asocial
01JVXC39FGS30GXDG3APMH9E18,28,5,2,0.0,3,0,26,2,5,1.0,asocial
01JVXC39FGS30GXDG3APMH9E18,28,6,2,0.0,2,0,26,3,5,1.0,asocial
01JVXC39FGS30GXDG3APMH9E18,28,7,2,0.0,3,0,3,0,5,1.0,asocial
01JVXC39FGS30GXDG3APMH9E18,28,8,2,0.0,2,1,27,3,5,1.0,asocial
01JVXC39FGS30GXDG3APMH9E18,28,9,2,0.0,3,0,29,3,5,1.0,asocial
01JVXC39FGS30GXDG3APMH9E18,29,0,6,1.0,2,0,25,5,2,0.0,asocial
01JVXC39FGS30GXDG3APMH9E18,29,1,6,1.0,2,0,26,3,2,0.0,asocial
01JVXC39FGS30GXDG3APMH9E18,29,2,6,1.0,3,2,30,3,2,0.0,asocial
01JVXC39FGS30GXDG3APMH9E18,29,3,6,1.0,3,0,31,4,2,0.0,asocial
01JVXC39FGS30GXDG3APMH9E18,29,4,6,1.0,2,0,27,0,2,0.0,asocial
01JVXC39FGS30GXDG3APMH9E18,29,5,6,1.0,3,0,27,2,2,0.0,asocial
01JVXC39FGS30GXDG3APMH9E18,29,6,6,1.0,2,0,26,4,2,0.0,asocial
01JVXC39FGS30GXDG3APMH9E18,29,7,6,1.0,3,0,3,0,2,0.0,asocial
01JVXC39FGS30GXDG3APMH9E18,29,8,6,1.0,2,1,28,3,2,0.0,asocial
01JVXC39FGS30GXDG3APMH9E18,29,9,6,1.0,3,0,30,3,2,0.0,asocial
01JVXC39FGS30GXDG3APMH9E18,30,0,4,1.0,2,0,26,5,6,1.0,asocial
01JVXC39FGS30GXDG3APMH9E18,30,1,4,1.0,2,0,26,3,6,1.0,asocial
01JVXC39FGS30GXDG3APMH9E18,30,2,4,1.0,3,2,31,3,6,1.0,asocial
01JVXC39FGS30GXDG3APMH9E18,30,3,4,1.0,3,0,33,4,6,1.0,asocial
01JVXC39FGS30GXDG3APMH9E18,30,4,4,1.0,2,0,28,0,6,1.0,asocial
01JVXC39FGS30GXDG3APMH9E18,30,5,4,1.0,3,0,28,2,6,1.0,asocial
01JVXC39FGS30GXDG3APMH9E18,30,6,4,1.0,3,0,28,4,6,1.0,asocial
01JVXC39FGS30GXDG3APMH9E18,30,7,4,1.0,3,0,3,0,6,1.0,asocial
01JVXC39FGS30GXDG3APMH9E18,30,8,4,1.0,2,1,29,3,6,1.0,asocial
01JVXC39FGS30GXDG3APMH9E18,30,9,4,1.0,3,0,30,4,6,1.0,asocial
01JVXC39FGS30GXDG3APMH9E18,31,0,0,1.0,2,0,26,6,4,1.0,asocial
01JVXC39FGS30GXDG3APMH9E18,31,1,0,1.0,2,0,26,3,4,1.0,asocial
01JVXC39FGS30GXDG3APMH9E18,31,2,0,1.0,3,2,32,3,4,1.0,asocial
01JVXC39FGS30GXDG3APMH9E18,31,3,0,1.0,3,0,35,4,4,1.0,asocial
01JVXC39FGS30GXDG3APMH9E18,31,4,0,1.0,3,0,30,0,4,1.0,asocial
01JVXC39FGS30GXDG3APMH9E18,31,5,0,1.0,3,0,29,2,4,1.0,asocial
01JVXC39FGS30GXDG3APMH9E18,31,6,0,1.0,3,0,29,4,4,1.0,asocial
01JVXC39FGS30GXDG3APMH9E18,31,7,0,1.0,3,0,3,0,4,1.0,asocial
01JVXC39FGS30GXDG3APMH9E18,31,8,0,1.0,2,1,30,3,4,1.0,asocial
01JVXC39FGS30GXDG3APMH9E18,31,9,0,1.0,3,0,31,4,4,1.0,asocial
01JVXC39FGS30GXDG3APMH9E18,32,0,1,1.0,3,0,28,6,0,1.0,asocial
01JVXC39FGS30GXDG3APMH9E18,32,1,1,1.0,2,0,26,3,0,1.0,asocial
01JVXC39FGS30GXDG3APMH9E18,32,2,1,1.0,3,2,33,3,0,1.0,asocial
01JVXC39FGS30GXDG3APMH9E18,32,3,1,1.0,3,0,37,4,0,1.0,asocial
01JVXC39FGS30GXDG3APMH9E18,32,4,1,1.0,3,0,30,1,0,1.0,asocial
01JVXC39FGS30GXDG3APMH9E18,32,5,1,1.0,3,0,30,2,0,1.0,asocial
01JVXC39FGS30GXDG3APMH9E18,32,6,1,1.0,3,0,30,4,0,1.0,asocial
01JVXC39FGS30GXDG3APMH9E18,32,7,1,1.0,3,0,3,0,0,1.0,asocial
01JVXC39FGS30GXDG3APMH9E18,32,8,1,1.0,2,1,31,3,0,1.0,asocial
01JVXC39FGS30GXDG3APMH9E18,32,9,1,1.0,3,0,32,4,0,1.0,asocial
01JVXC39FGS30GXDG3APMH9E18,33,0,7,1.0,3,0,29,6,1,1.0,asocial
01JVXC39FGS30GXDG3APMH9E18,33,1,7,1.0,3,0,27,3,1,1.0,asocial
01JVXC39FGS30GXDG3APMH9E18,33,2,7,1.0,3,2,33,4,1,1.0,asocial
01JVXC39FGS30GXDG3APMH9E18,33,3,7,1.0,3,0,38,5,1,1.0,asocial
01JVXC39FGS30GXDG3APMH9E18,33,4,7,1.0,3,0,31,1,1,1.0,asocial
01JVXC39FGS30GXDG3APMH9E18,33,5,7,1.0,3,0,31,2,1,1.0,asocial
01JVXC39FGS30GXDG3APMH9E18,33,6,7,1.0,3,0,31,4,1,1.0,asocial
01JVXC39FGS30GXDG3APMH9E18,33,7,7,1.0,3,0,3,0,1,1.0,asocial
01JVXC39FGS30GXDG3APMH9E18,33,8,7,1.0,2,1,31,4,1,1.0,asocial
01JVXC39FGS30GXDG3APMH9E18,33,9,7,1.0,3,0,33,4,1,1.0,asocial
01JVXC39FGS30GXDG3APMH9E18,34,0,1,1.0,3,0,30,6,7,1.0,asocial
01JVXC39FGS30GXDG3APMH9E18,34,1,1,1.0,3,0,27,3,7,1.0,asocial
01JVXC39FGS30GXDG3APMH9E18,34,2,1,1.0,3,2,34,4,7,1.0,asocial
01JVXC39FGS30GXDG3APMH9E18,34,3,1,1.0,3,0,40,5,7,1.0,asocial
01JVXC39FGS30GXDG3APMH9E18,34,4,1,1.0,3,0,32,1,7,1.0,asocial
01JVXC39FGS30GXDG3APMH9E18,34,5,1,1.0,3,0,32,2,7,1.0,asocial
01JVXC39FGS30GXDG3APMH9E18,34,6,1,1.0,3,0,32,4,7,1.0,asocial
01JVXC39FGS30GXDG3APMH9E18,34,7,1,1.0,4,0,4,0,7,1.0,asocial
01JVXC39FGS30GXDG3APMH9E18,34,8,1,1.0,2,1,32,4,7,1.0,asocial
01JVXC39FGS30GXDG3APMH9E18,34,9,1,1.0,3,0,34,4,7,1.0,asocial
01JVXC39FGS30GXDG3APMH9E18,35,0,0,1.0,3,0,31,6,1,1.0,asocial
01JVXC39FGS30GXDG3APMH9E18,35,1,0,1.0,4,0,28,3,1,1.0,asocial
01JVXC39FGS30GXDG3APMH9E18,35,2,0,1.0,3,2,35,4,1,1.0,asocial
01JVXC39FGS30GXDG3APMH9E18,35,3,0,1.0,3,0,42,5,1,1.0,asocial
01JVXC39FGS30GXDG3APMH9E18,35,4,0,1.0,3,0,32,2,1,1.0,asocial
01JVXC39FGS30GXDG3APMH9E18,35,5,0,1.0,3,0,33,2,1,1.0,asocial
01JVXC39FGS30GXDG3APMH9E18,35,6,0,1.0,3,0,33,4,1,1.0,asocial
01JVXC39FGS30GXDG3APMH9E18,35,7,0,1.0,4,0,4,0,1,1.0,asocial
01JVXC39FGS30GXDG3APMH9E18,35,8,0,1.0,2,1,33,4,1,1.0,asocial
01JVXC39FGS30GXDG3APMH9E18,35,9,0,1.0,3,0,35,4,1,1.0,asocial
01JVXC39FGS30GXDG3APMH9E18,36,0,9,0.0,4,0,33,6,0,1.0,asocial
01JVXC39FGS30GXDG3APMH9E18,36,1,9,0.0,4,0,28,3,0,1.0,asocial
01JVXC39FGS30GXDG3APMH9E18,36,2,9,0.0,3,2,36,4,0,1.0,asocial
01JVXC39FGS30GXDG3APMH9E18,36,3,9,0.0,3,0,43,6,0,1.0,asocial
01JVXC39FGS30GXDG3APMH9E18,36,4,9,0.0,3,0,33,2,0,1.0,asocial
01JVXC39FGS30GXDG3APMH9E18,36,5,9,0.0,3,0,34,2,0,1.0,asocial
01JVXC39FGS30GXDG3APMH9E18,36,6,9,0.0,3,0,34,4,0,1.0,asocial
01JVXC39FGS30GXDG3APMH9E18,36,7,9,0.0,4,0,4,0,0,1.0,asocial
01JVXC39FGS30GXDG3APMH9E18,36,8,9,0.0,2,1,33,5,0,1.0,asocial
01JVXC39FGS30GXDG3APMH9E18,36,9,9,0.0,3,0,36,4,0,1.0,asocial
01JVXC39FGS30GXDG3APMH9E18,37,0,4,1.0,4,0,34,6,9,0.0,asocial
01JVXC39FGS30GXDG3APMH9E18,37,1,4,1.0,4,0,28,3,9,0.0,asocial
01JVXC39FGS30GXDG3APMH9E18,37,2,4,1.0,3,2,37,4,9,0.0,asocial
01JVXC39FGS30GXDG3APMH9E18,37,3,4,1.0,3,0,45,6,9,0.0,asocial
01JVXC39FGS30GXDG3APMH9E18,37,4,4,1.0,3,0,33,3,9,0.0,asocial
01JVXC39FGS30GXDG3APMH9E18,37,5,4,1.0,3,0,35,2,9,0.0,asocial
01JVXC39FGS30GXDG3APMH9E18,37,6,4,1.0,3,0,35,4,9,0.0,asocial
01JVXC39FGS30GXDG3APMH9E18,37,7,4,1.0,4,0,4,0,9,0.0,asocial
01JVXC39FGS30GXDG3APMH9E18,37,8,4,1.0,2,1,34,5,9,0.0,asocial
01JVXC39FGS30GXDG3APMH9E18,37,9,4,1.0,3,1,37,5,9,0.0,asocial
01JVXC39FGS30GXDG3APMH9E18,38,0,6,1.0,4,0,34,7,4,1.0,asocial
01JVXC39FGS30GXDG3APMH9E18,38,1,6,1.0,4,0,28,3,4,1.0,asocial
01JVXC39FGS30GXDG3APMH9E18,38,2,6,1.0,3,2,39,4,4,1.0,asocial
01JVXC39FGS30GXDG3APMH9E18,38,3,6,1.0,3,0,46,6,4,1.0,asocial
01JVXC39FGS30GXDG3APMH9E18,38,4,6,1.0,4,0,34,3,4,1.0,asocial
01JVXC39FGS30GXDG3APMH9E18,38,5,6,1.0,3,0,35,3,4,1.0,asocial
01JVXC39FGS30GXDG3APMH9E18,38,6,6,1.0,3,0,36,4,4,1.0,asocial
01JVXC39FGS30GXDG3APMH9E18,38,7,6,1.0,4,0,4,0,4,1.0,asocial
01JVXC39FGS30GXDG3APMH9E18,38,8,6,1.0,2,1,34,6,4,1.0,asocial
01JVXC39FGS30GXDG3APMH9E18,38,9,6,1.0,3,1,39,5,4,1.0,asocial
01JVXC39FGS30GXDG3APMH9E18,39,0,3,1.0,4,0,35,7,6,1.0,asocial
01JVXC39FGS30GXDG3APMH9E18,39,1,3,1.0,4,0,28,3,6,1.0,asocial
01JVXC39FGS30GXDG3APMH9E18,39,2,3,1.0,3,2,40,4,6,1.0,asocial
01JVXC39FGS30GXDG3APMH9E18,39,3,3,1.0,3,0,47,6,6,1.0,asocial
01JVXC39FGS30GXDG3APMH9E18,39,4,3,1.0,4,0,34,3,6,1.0,asocial
01JVXC39FGS30GXDG3APMH9E18,39,5,3,1.0,3,0,36,3,6,1.0,asocial
01JVXC39FGS30GXDG3APMH9E18,39,6,3,1.0,4,0,39,4,6,1.0,asocial
01JVXC39FGS30GXDG3APMH9E18,39,7,3,1.0,4,0,4,0,6,1.0,asocial
01JVXC39FGS30GXDG3APMH9E18,39,8,3,1.0,2,1,35,6,6,1.0,asocial
01JVXC39FGS30GXDG3APMH9E18,39,9,3,1.0,3,1,41,5,6,1.0,asocial
01JVXC39FGS30GXDG3APMH9E18,40,0,5,0.0,4,0,36,7,3,1.0,asocial
01JVXC39FGS30GXDG3APMH9E18,40,1,5,0.0,4,0,28,3,3,1.0,asocial
01JVXC39FGS30GXDG3APMH9E18,40,2,5,0.0,3,2,41,4,3,1.0,asocial
01JVXC39FGS30GXDG3APMH9E18,40,3,5,0.0,4,0,49,6,3,1.0,asocial
01JVXC39FGS30GXDG3APMH9E18,40,4,5,0.0,4,0,35,3,3,1.0,asocial
01JVXC39FGS30GXDG3APMH9E18,40,5,5,0.0,3,0,37,3,3,1.0,asocial
01JVXC39FGS30GXDG3APMH9E18,40,6,5,0.0,4,0,40,4,3,1.0,asocial
01JVXC39FGS30GXDG3APMH9E18,40,7,5,0.0,4,0,4,0,3,1.0,asocial
01JVXC39FGS30GXDG3APMH9E18,40,8,5,0.0,2,1,36,6,3,1.0,asocial
01JVXC39FGS30GXDG3APMH9E18,40,9,5,0.0,3,1,43,5,3,1.0,asocial
01JVXC39FGS30GXDG3APMH9E18,41,0,3,1.0,4,0,38,7,5,0.0,asocial
01JVXC39FGS30GXDG3APMH9E18,41,1,3,1.0,4,0,28,3,5,0.0,asocial
01JVXC39FGS30GXDG3APMH9E18,41,2,3,1.0,3,2,42,4,5,0.0,asocial
01JVXC39FGS30GXDG3APMH9E18,41,3,3,1.0,4,0,50,6,5,0.0,asocial
01JVXC39FGS30GXDG3APMH9E18,41,4,3,1.0,4,0,35,3,5,0.0,asocial
01JVXC39FGS30GXDG3APMH9E18,41,5,3,1.0,3,1,38,4,5,0.0,asocial
01JVXC39FGS30GXDG3APMH9E18,41,6,3,1.0,4,0,41,4,5,0.0,asocial
01JVXC39FGS30GXDG3APMH9E18,41,7,3,1.0,4,0,4,0,5,0.0,asocial
01JVXC39FGS30GXDG3APMH9E18,41,8,3,1.0,2,1,37,6,5,0.0,asocial
01JVXC39FGS30GXDG3APMH9E18,41,9,3,1.0,3,1,45,5,5,0.0,asocial
01JVXC39FGS30GXDG3APMH9E18,42,0,7,1.0,4,0,39,7,3,1.0,asocial
01JVXC39FGS30GXDG3APMH9E18,42,1,7,1.0,4,0,28,3,3,1.0,asocial
01JVXC39FGS30GXDG3APMH9E18,42,2,7,1.0,3,2,43,4,3,1.0,asocial
01JVXC39FGS30GXDG3APMH9E18,42,3,7,1.0,5,0,52,6,3,1.0,asocial
01JVXC39FGS30GXDG3APMH9E18,42,4,7,1.0,4,0,35,3,3,1.0,asocial
01JVXC39FGS30GXDG3APMH9E18,42,5,7,1.0,3,1,40,4,3,1.0,asocial
01JVXC39FGS30GXDG3APMH9E18,42,6,7,1.0,4,0,42,4,3,1.0,asocial
01JVXC39FGS30GXDG3APMH9E18,42,7,7,1.0,4,0,4,0,3,1.0,asocial
01JVXC39FGS30GXDG3APMH9E18,42,8,7,1.0,2,1,38,6,3,1.0,asocial
01JVXC39FGS30GXDG3APMH9E18,42,9,7,1.0,3,1,47,5,3,1.0,asocial
01JVXC39FGS30GXDG3APMH9E18,43,0,1,1.0,4,0,40,7,7,1.0,asocial
01JVXC39FGS30GXDG3APMH9E18,43,1,1,1.0,4,0,29,3,7,1.0,asocial
01JVXC39FGS30GXDG3APMH9E18,43,2,1,1.0,3,2,44,4,7,1.0,asocial
01JVXC39FGS30GXDG3APMH9E18,43,3,1,1.0,5,0,53,6,7,1.0,asocial
01JVXC39FGS30GXDG3APMH9E18,43,4,1,1.0,4,0,35,3,7,1.0,asocial
01JVXC39FGS30GXDG3APMH9E18,43,5,1,1.0,3,1,41,4,7,1.0,asocial
01JVXC39FGS30GXDG3APMH9E18,43,6,1,1.0,4,0,43,4,7,1.0,asocial
01JVXC39FGS30GXDG3APMH9E18,43,7,1,1.0,5,0,5,0,7,1.0,asocial
01JVXC39FGS30GXDG3APMH9E18,43,8,1,1.0,2,1,40,6,7,1.0,asocial
01JVXC39FGS30GXDG3APMH9E18,43,9,1,1.0,3,1,48,5,7,1.0,asocial
01JVXC39FGS30GXDG3APMH9E18,44,0,0,1.0,4,0,41,7,1,1.0,asocial
01JVXC39FGS30GXDG3APMH9E18,44,1,0,1.0,5,0,31,3,1,1.0,asocial
01JVXC39FGS30GXDG3APMH9E18,44,2,0,1.0,3,2,45,4,1,1.0,asocial
01JVXC39FGS30GXDG3APMH9E18,44,3,0,1.0,5,0,53,7,1,1.0,asocial
01JVXC39FGS30GXDG3APMH9E18,44,4,0,1.0,4,0,35,3,1,1.0,asocial
01JVXC39FGS30GXDG3APMH9E18,44,5,0,1.0,3,1,42,4,1,1.0,asocial
01JVXC39FGS30GXDG3APMH9E18,44,6,0,1.0,4,0,43,5,1,1.0,asocial
01JVXC39FGS30GXDG3APMH9E18,44,7,0,1.0,5,0,5,0,1,1.0,asocial
01JVXC39FGS30GXDG3APMH9E18,44,8,0,1.0,2,1,41,6,1,1.0,asocial
01JVXC39FGS30GXDG3APMH9E18,44,9,0,1.0,3,1,50,5,1,1.0,asocial
01JVXC39FGS30GXDG3APMH9E18,45,0,4,1.0,5,0,43,7,0,1.0,asocial
01JVXC39FGS30GXDG3APMH9E18,45,1,4,1.0,5,0,32,3,0,1.0,asocial
01JVXC39FGS30GXDG3APMH9E18,45,2,4,1.0,3,2,45,5,0,1.0,asocial
01JVXC39FGS30GXDG3APMH9E18,45,3,4,1.0,5,0,53,8,0,1.0,asocial
01JVXC39FGS30GXDG3APMH9E18,45,4,4,1.0,4,0,35,3,0,1.0,asocial
01JVXC39FGS30GXDG3APMH9E18,45,5,4,1.0,3,1,43,4,0,1.0,asocial
01JVXC39FGS30GXDG3APMH9E18,45,6,4,1.0,4,0,44,5,0,1.0,asocial
01JVXC39FGS30GXDG3APMH9E18,45,7,4,1.0,5,0,6,0,0,1.0,asocial
01JVXC39FGS30GXDG3APMH9E18,45,8,4,1.0,2,1,42,6,0,1.0,asocial
01JVXC39FGS30GXDG3APMH9E18,45,9,4,1.0,3,1,51,5,0,1.0,asocial
01JVXC39FGS30GXDG3APMH9E18,46,0,6,1.0,5,0,44,7,4,1.0,asocial
01JVXC39FGS30GXDG3APMH9E18,46,1,6,1.0,5,0,32,3,4,1.0,asocial
01JVXC39FGS30GXDG3APMH9E18,46,2,6,1.0,3,2,46,6,4,1.0,asocial
01JVXC39FGS30GXDG3APMH9E18,46,3,6,1.0,5,0,54,8,4,1.0,asocial
01JVXC39FGS30GXDG3APMH9E18,46,4,6,1.0,5,0,36,3,4,1.0,asocial
01JVXC39FGS30GXDG3APMH9E18,46,5,6,1.0,3,1,44,4,4,1.0,asocial
01JVXC39FGS30GXDG3APMH9E18,46,6,6,1.0,4,0,45,5,4,1.0,asocial
01JVXC39FGS30GXDG3APMH9E18,46,7,6,1.0,5,0,6,0,4,1.0,asocial
01JVXC39FGS30GXDG3APMH9E18,46,8,6,1.0,2,1,43,6,4,1.0,asocial
01JVXC39FGS30GXDG3APMH9E18,46,9,6,1.0,3,1,52,6,4,1.0,asocial
01JVXC39FGS30GXDG3APMH9E18,47,0,7,1.0,5,0,45,7,6,1.0,asocial
01JVXC39FGS30GXDG3APMH9E18,47,1,7,1.0,5,0,32,3,6,1.0,asocial
01JVXC39FGS30GXDG3APMH9E18,47,2,7,1.0,3,2,46,7,6,1.0,asocial
01JVXC39FGS30GXDG3APMH9E18,47,3,7,1.0,5,0,55,8,6,1.0,asocial
01JVXC39FGS30GXDG3APMH9E18,47,4,7,1.0,5,0,37,3,6,1.0,asocial
01JVXC39FGS30GXDG3APMH9E18,47,5,7,1.0,3,1,46,4,6,1.0,asocial
01JVXC39FGS30GXDG3APMH9E18,47,6,7,1.0,5,0,47,5,6,1.0,asocial
01JVXC39FGS30GXDG3APMH9E18,47,7,7,1.0,5,0,6,0,6,1.0,asocial
01JVXC39FGS30GXDG3APMH9E18,47,8,7,1.0,2,1,44,6,6,1.0,asocial
01JVXC39FGS30GXDG3APMH9E18,47,9,7,1.0,3,1,53,6,6,1.0,asocial
01JVXC39FGS30GXDG3APMH9E18,48,0,1,1.0,5,0,46,7,7,1.0,asocial
01JVXC39FGS30GXDG3APMH9E18,48,1,1,1.0,5,0,32,3,7,1.0,asocial
01JVXC39FGS30GXDG3APMH9E18,48,2,1,1.0,3,2,47,7,7,1.0,asocial
01JVXC39FGS30GXDG3APMH9E18,48,3,1,1.0,5,0,56,8,7,1.0,asocial
01JVXC39FGS30GXDG3APMH9E18,48,4,1,1.0,5,0,37,3,7,1.0,asocial
01JVXC39FGS30GXDG3APMH9E18,48,5,1,1.0,3,1,49,4,7,1.0,asocial
01JVXC39FGS30GXDG3APMH9E18,48,6,1,1.0,5,0,48,5,7,1.0,asocial
01JVXC39FGS30GXDG3APMH9E18,48,7,1,1.0,6,0,7,0,7,1.0,asocial
01JVXC39FGS30GXDG3APMH9E18,48,8,1,1.0,2,1,45,6,7,1.0,asocial
01JVXC39FGS30GXDG3APMH9E18,48,9,1,1.0,3,1,54,6,7,1.0,asocial
01JVXC39FGS30GXDG3APMH9E18,49,0,0,1.0,5,0,47,7,1,1.0,asocial
01JVXC39FGS30GXDG3APMH9E18,49,1,0,1.0,6,0,34,3,1,1.0,asocial
01JVXC39FGS30GXDG3APMH9E18,49,2,0,1.0,3,2,48,7,1,1.0,asocial
01JVXC39FGS30GXDG3APMH9E18,49,3,0,1.0,5,0,57,8,1,1.0,asocial
01JVXC39FGS30GXDG3APMH9E18,49,4,0,1.0,5,0,37,3,1,1.0,asocial
01JVXC39FGS30GXDG3APMH9E18,49,5,0,1.0,3,1,49,5,1,1.0,asocial
01JVXC39FGS30GXDG3APMH9E18,49,6,0,1.0,5,0,49,5,1,1.0,asocial
01JVXC39FGS30GXDG3APMH9E18,49,7,0,1.0,6,0,7,0,1,1.0,asocial
01JVXC39FGS30GXDG3APMH9E18,49,8,0,1.0,2,1,46,6,1,1.0,asocial
01JVXC39FGS30GXDG3APMH9E18,49,9,0,1.0,3,1,56,6,1,1.0,asocial
01JVXC39FGS30GXDG3APMH9E18,50,0,4,1.0,6,0,49,7,0,1.0,asocial
01JVXC39FGS30GXDG3APMH9E18,50,1,4,1.0,6,0,34,3,0,1.0,asocial
01JVXC39FGS30GXDG3APMH9E18,50,2,4,1.0,3,2,49,7,0,1.0,asocial
01JVXC39FGS30GXDG3APMH9E18,50,3,4,1.0,5,0,58,8,0,1.0,asocial
01JVXC39FGS30GXDG3APMH9E18,50,4,4,1.0,5,0,37,3,0,1.0,asocial
01JVXC39FGS30GXDG3APMH9E18,50,5,4,1.0,3,1,51,5,0,1.0,asocial
01JVXC39FGS30GXDG3APMH9E18,50,6,4,1.0,5,0,49,6,0,1.0,asocial
01JVXC39FGS30GXDG3APMH9E18,50,7,4,1.0,6,0,8,0,0,1.0,asocial
01JVXC39FGS30GXDG3APMH9E18,50,8,4,1.0,2,1,47,6,0,1.0,asocial
01JVXC39FGS30GXDG3APMH9E18,50,9,4,1.0,3,1,57,6,0,1.0,asocial
01JVXC39FGS30GXDG3APMH9E18,51,0,6,1.0,6,0,49,8,4,1.0,asocial
01JVXC39FGS30GXDG3APMH9E18,51,1,6,1.0,6,0,34,3,4,1.0,asocial
01JVXC39FGS30GXDG3APMH9E18,51,2,6,1.0,3,2,51,7,4,1.0,asocial
01JVXC39FGS30GXDG3APMH9E18,51,3,6,1.0,5,0,59,8,4,1.0,asocial
01JVXC39FGS30GXDG3APMH9E18,51,4,6,1.0,6,0,38,3,4,1.0,asocial
01JVXC39FGS30GXDG3APMH9E18,51,5,6,1.0,3,1,52,5,4,1.0,asocial
01JVXC39FGS30GXDG3APMH9E18,51,6,6,1.0,5,0,50,6,4,1.0,asocial
01JVXC39FGS30GXDG3APMH9E18,51,7,6,1.0,6,0,8,0,4,1.0,asocial
01JVXC39FGS30GXDG3APMH9E18,51,8,6,1.0,2,1,49,6,4,1.0,asocial
01JVXC39FGS30GXDG3APMH9E18,51,9,6,1.0,3,1,58,6,4,1.0,asocial
01JVXC4PARHT6FMXR1M49QCM6S,1,0,9,1.0,0,0,0,0,-1,,asocial
01JVXC4PARHT6FMXR1M49QCM6S,1,1,9,1.0,0,0,0,0,-1,,asocial
01JVXC4PARHT6FMXR1M49QCM6S,1,2,9,1.0,0,0,0,0,-1,,asocial
01JVXC4PARHT6FMXR1M49QCM6S,1,3,9,1.0,0,0,0,0,-1,,asocial
01JVXC4PARHT6FMXR1M49QCM6S,1,4,9,1.0,0,0,0,0,-1,,asocial
01JVXC4PARHT6FMXR1M49QCM6S,1,5,9,1.0,0,0,0,0,-1,,asocial
01JVXC4PARHT6FMXR1M49QCM6S,1,6,9,1.0,0,0,0,0,-1,,asocial
01JVXC4PARHT6FMXR1M49QCM6S,1,7,9,1.0,0,0,0,0,-1,,asocial
01JVXC4PARHT6FMXR1M49QCM6S,1,8,9,1.0,0,0,0,0,-1,,asocial
01JVXC4PARHT6FMXR1M49QCM6S,1,9,9,1.0,0,0,0,0,-1,,asocial
01JVXC4PARHT6FMXR1M49QCM6S,2,0,9,1.0,0,0,1,0,9,1.0,asocial
01JVXC4PARHT6FMXR1M49QCM6S,2,1,9,1.0,0,0,1,0,9,1.0,asocial
01JVXC4PARHT6FMXR1M49QCM6S,2,2,9,1.0,0,0,1,0,9,1.0,asocial
01JVXC4PARHT6FMXR1M49QCM6S,2,3,9,1.0,0,0,1,0,9,1.0,asocial
01JVXC4PARHT6FMXR1M49QCM6S,2,4,9,1.0,0,0,1,0,9,1.0,asocial
01JVXC4PARHT6FMXR1M49QCM6S,2,5,9,1.0,0,0,1,0,9,1.0,asocial
01JVXC4PARHT6FMXR1M49QCM6S,2,6,9,1.0,0,0,1,0,9,1.0,asocial
01JVXC4PARHT6FMXR1M49QCM6S,2,7,9,1.0,0,0,1,0,9,1.0,asocial
01JVXC4PARHT6FMXR1M49QCM6S,2,8,9,1.0,0,0,1,0,9,1.0,asocial
01JVXC4PARHT6FMXR1M49QCM6S,2,9,9,1.0,1,0,1,0,9,1.0,asocial
01JVXC4PARHT6FMXR1M49QCM6S,3,0,9,1.0,0,0,2,0,9,1.0,asocial
01JVXC4PARHT6FMXR1M49QCM6S,3,1,9,1.0,0,0,2,0,9,1.0,asocial
01JVXC4PARHT6FMXR1M49QCM6S,3,2,9,1.0,0,0,2,0,9,1.0,asocial
01JVXC4PARHT6FMXR1M49QCM6S,3,3,9,1.0,0,0,1,1,9,1.0,asocial
01JVXC4PARHT6FMXR1M49QCM6S,3,4,9,1.0,0,0,2,0,9,1.0,asocial
01JVXC4PARHT6FMXR1M49QCM6S,3,5,9,1.0,0,0,2,0,9,1.0,asocial
01JVXC4PARHT6FMXR1M49QCM6S,3,6,9,1.0,0,0,2,0,9,1.0,asocial
01JVXC4PARHT6FMXR1M49QCM6S,3,7,9,1.0,0,0,2,0,9,1.0,asocial
01JVXC4PARHT6FMXR1M49QCM6S,3,8,9,1.0,0,0,2,0,9,1.0,asocial
01JVXC4PARHT6FMXR1M49QCM6S,3,9,9,1.0,2,0,2,0,9,1.0,asocial
01JVXC4PARHT6FMXR1M49QCM6S,4,0,9,1.0,0,0,3,0,9,1.0,asocial
01JVXC4PARHT6FMXR1M49QCM6S,4,1,9,1.0,0,0,3,0,9,1.0,asocial
01JVXC4PARHT6FMXR1M49QCM6S,4,2,9,1.0,0,0,3,0,9,1.0,asocial
01JVXC4PARHT6FMXR1M49QCM6S,4,3,9,1.0,0,0,2,2,9,1.0,asocial
01JVXC4PARHT6FMXR1M49QCM6S,4,4,9,1.0,0,0,3,0,9,1.0,asocial
01JVXC4PARHT6FMXR1M49QCM6S,4,5,9,1.0,0,0,2,0,9,1.0,asocial
01JVXC4PARHT6FMXR1M49QCM6S,4,6,9,1.0,0,0,3,0,9,1.0,asocial
01JVXC4PARHT6FMXR1M49QCM6S,4,7,9,1.0,0,0,2,0,9,1.0,asocial
01JVXC4PARHT6FMXR1M49QCM6S,4,8,9,1.0,0,0,3,0,9,1.0,asocial
01JVXC4PARHT6FMXR1M49QCM6S,4,9,9,1.0,3,0,3,1,9,1.0,asocial
01JVXC4PARHT6FMXR1M49QCM6S,5,0,9,1.0,0,0,4,0,9,1.0,asocial
01JVXC4PARHT6FMXR1M49QCM6S,5,1,9,1.0,0,0,4,0,9,1.0,asocial
01JVXC4PARHT6FMXR1M49QCM6S,5,2,9,1.0,0,0,5,0,9,1.0,asocial
01JVXC4PARHT6FMXR1M49QCM6S,5,3,9,1.0,0,0,3,2,9,1.0,asocial
01JVXC4PARHT6FMXR1M49QCM6S,5,4,9,1.0,0,0,4,0,9,1.0,asocial
01JVXC4PARHT6FMXR1M49QCM6S,5,5,9,1.0,0,0,3,0,9,1.0,asocial
01JVXC4PARHT6FMXR1M49QCM6S,5,6,9,1.0,0,0,4,0,9,1.0,asocial
01JVXC4PARHT6FMXR1M49QCM6S,5,7,9,1.0,0,0,2,0,9,1.0,asocial
01JVXC4PARHT6FMXR1M49QCM6S,5,8,9,1.0,0,0,4,0,9,1.0,asocial
01JVXC4PARHT6FMXR1M49QCM6S,5,9,9,1.0,4,0,4,1,9,1.0,asocial
01JVXC4PARHT6FMXR1M49QCM6S,6,0,9,1.0,0,0,5,0,9,1.0,asocial
01JVXC4PARHT6FMXR1M49QCM6S,6,1,9,1.0,0,0,5,0,9,1.0,asocial
01JVXC4PARHT6FMXR1M49QCM6S,6,2,9,1.0,0,0,6,0,9,1.0,asocial
01JVXC4PARHT6FMXR1M49QCM6S,6,3,9,1.0,0,0,4,2,9,1.0,asocial
01JVXC4PARHT6FMXR1M49QCM6S,6,4,9,1.0,0,0,4,0,9,1.0,asocial
01JVXC4PARHT6FMXR1M49QCM6S,6,5,9,1.0,0,0,4,0,9,1.0,asocial
01JVXC4PARHT6FMXR1M49QCM6S,6,6,9,1.0,0,0,6,0,9,1.0,asocial
01JVXC4PARHT6FMXR1M49QCM6S,6,7,9,1.0,0,0,2,0,9,1.0,asocial
01JVXC4PARHT6FMXR1M49QCM6S,6,8,9,1.0,0,0,5,0,9,1.0,asocial
01JVXC4PARHT6FMXR1M49QCM6S,6,9,9,1.0,5,0,6,1,9,1.0,asocial
01JVXC4PARHT6FMXR1M49QCM6S,7,0,9,1.0,0,0,6,0,9,1.0,asocial
01JVXC4PARHT6FMXR1M49QCM6S,7,1,9,1.0,0,0,7,0,9,1.0,asocial
01JVXC4PARHT6FMXR1M49QCM6S,7,2,9,1.0,0,0,7,0,9,1.0,asocial
01JVXC4PARHT6FMXR1M49QCM6S,7,3,9,1.0,0,0,5,2,9,1.0,asocial
01JVXC4PARHT6FMXR1M49QCM6S,7,4,9,1.0,0,0,5,0,9,1.0,asocial
01JVXC4PARHT6FMXR1M49QCM6S,7,5,9,1.0,0,0,5,0,9,1.0,asocial
01JVXC4PARHT6FMXR1M49QCM6S,7,6,9,1.0,0,0,7,0,9,1.0,asocial
01JVXC4PARHT6FMXR1M49QCM6S,7,7,9,1.0,0,0,2,0,9,1.0,asocial
01JVXC4PARHT6FMXR1M49QCM6S,7,8,9,1.0,0,0,6,0,9,1.0,asocial
01JVXC4PARHT6FMXR1M49QCM6S,7,9,9,1.0,6,0,7,1,9,1.0,asocial
01JVXC4PARHT6FMXR1M49QCM6S,8,0,9,1.0,0,0,8,0,9,1.0,asocial
01JVXC4PARHT6FMXR1M49QCM6S,8,1,9,1.0,0,0,8,1,9,1.0,asocial
01JVXC4PARHT6FMXR1M49QCM6S,8,2,9,1.0,0,0,8,0,9,1.0,asocial
01JVXC4PARHT6FMXR1M49QCM6S,8,3,9,1.0,0,0,6,2,9,1.0,asocial
01JVXC4PARHT6FMXR1M49QCM6S,8,4,9,1.0,0,0,6,0,9,1.0,asocial
01JVXC4PARHT6FMXR1M49QCM6S,8,5,9,1.0,0,0,5,0,9,1.0,asocial
01JVXC4PARHT6FMXR1M49QCM6S,8,6,9,1.0,0,0,7,1,9,1.0,asocial
01JVXC4PARHT6FMXR1M49QCM6S,8,7,9,1.0,0,0,2,0,9,1.0,asocial
01JVXC4PARHT6FMXR1M49QCM6S,8,8,9,1.0,0,0,7,0,9,1.0,asocial
01JVXC4PARHT6FMXR1M49QCM6S,8,9,9,1.0,7,0,8,1,9,1.0,asocial
01JVXC4PARHT6FMXR1M49QCM6S,9,0,9,0.0,0,0,9,0,9,1.0,asocial
01JVXC4PARHT6FMXR1M49QCM6S,9,1,9,0.0,0,0,9,1,9,1.0,asocial
01JVXC4PARHT6FMXR1M49QCM6S,9,2,9,0.0,0,0,9,0,9,1.0,asocial
01JVXC4PARHT6FMXR1M49QCM6S,9,3,9,0.0,0,0,7,2,9,1.0,asocial
01JVXC4PARHT6FMXR1M49QCM6S,9,4,9,0.0,0,0,8,0,9,1.0,asocial
01JVXC4PARHT6FMXR1M49QCM6S,9,5,9,0.0,0,0,6,0,9,1.0,asocial
01JVXC4PARHT6FMXR1M49QCM6S,9,6,9,0.0,0,0,8,1,9,1.0,asocial
01JVXC4PARHT6FMXR1M49QCM6S,9,7,9,0.0,0,0,2,0,9,1.0,asocial
01JVXC4PARHT6FMXR1M49QCM6S,9,8,9,0.0,0,0,8,0,9,1.0,asocial
01JVXC4PARHT6FMXR1M49QCM6S,9,9,9,0.0,8,0,9,1,9,1.0,asocial
01JVXC4PARHT6FMXR1M49QCM6S,10,0,9,1.0,0,0,10,0,9,0.0,asocial
01JVXC4PARHT6FMXR1M49QCM6S,10,1,9,1.0,0,0,11,1,9,0.0,asocial
01JVXC4PARHT6FMXR1M49QCM6S,10,2,9,1.0,0,0,10,0,9,0.0,asocial
01JVXC4PARHT6FMXR1M49QCM6S,10,3,9,1.0,0,0,8,2,9,0.0,asocial
01JVXC4PARHT6FMXR1M49QCM6S,10,4,9,1.0,0,0,9,0,9,0.0,asocial
01JVXC4PARHT6FMXR1M49QCM6S,10,5,9,1.0,0,0,7,0,9,0.0,asocial
01JVXC4PARHT6FMXR1M49QCM6S,10,6,9,1.0,0,0,8,2,9,0.0,asocial
01JVXC4PARHT6FMXR1M49QCM6S,10,7,9,1.0,0,0,2,0,9,0.0,asocial
01JVXC4PARHT6FMXR1M49QCM6S,10,8,9,1.0,0,0,9,0,9,0.0,asocial
01JVXC4PARHT6FMXR1M49QCM6S,10,9,9,1.0,8,1,9,2,9,0.0,asocial
01JVXC4PARHT6FMXR1M49QCM6S,11,0,9,1.0,0,0,11,0,9,1.0,asocial
01JVXC4PARHT6FMXR1M49QCM6S,11,1,9,1.0,0,0,12,2,9,1.0,asocial
01JVXC4PARHT6FMXR1M49QCM6S,11,2,9,1.0,0,0,11,0,9,1.0,asocial
01JVXC4PARHT6FMXR1M49QCM6S,11,3,9,1.0,0,0,9,2,9,1.0,asocial
01JVXC4PARHT6FMXR1M49QCM6S,11,4,9,1.0,0,0,10,0,9,1.0,asocial
01JVXC4PARHT6FMXR1M49QCM6S,11,5,9,1.0,0,0,8,0,9,1.0,asocial
01JVXC4PARHT6FMXR1M49QCM6S,11,6,9,1.0,0,0,9,2,9,1.0,asocial
01JVXC4PARHT6FMXR1M49QCM6S,11,7,9,1.0,0,0,2,0,9,1.0,asocial
01JVXC4PARHT6FMXR1M49QCM6S,11,8,9,1.0,0,0,10,0,9,1.0,asocial
01JVXC4PARHT6FMXR1M49QCM6S,11,9,9,1.0,9,1,10,2,9,1.0,asocial
01JVXC4PARHT6FMXR1M49QCM6S,12,0,9,1.0,0,0,12,0,9,1.0,asocial
01JVXC4PARHT6FMXR1M49QCM6S,12,1,9,1.0,0,0,13,2,9,1.0,asocial
01JVXC4PARHT6FMXR1M49QCM6S,12,2,9,1.0,0,0,13,0,9,1.0,asocial
01JVXC4PARHT6FMXR1M49QCM6S,12,3,9,1.0,0,0,10,2,9,1.0,asocial
01JVXC4PARHT6FMXR1M49QCM6S,12,4,9,1.0,0,0,11,0,9,1.0,asocial
01JVXC4PARHT6FMXR1M49QCM6S,12,5,9,1.0,0,0,9,0,9,1.0,asocial
01JVXC4PARHT6FMXR1M49QCM6S,12,6,9,1.0,0,0,10,2,9,1.0,asocial
01JVXC4PARHT6FMXR1M49QCM6S,12,7,9,1.0,0,0,2,0,9,1.0,asocial
01JVXC4PARHT6FMXR1M49QCM6S,12,8,9,1.0,0,0,11,0,9,1.0,asocial
01JVXC4PARHT6FMXR1M49QCM6S,12,9,9,1.0,10,1,11,2,9,1.0,asocial
01JVXC4PARHT6FMXR1M49QCM6S,13,0,9,1.0,0,0,13,0,9,1.0,asocial
01JVXC4PARHT6FMXR1M49QCM6S,13,1,9,1.0,0,0,14,2,9,1.0,asocial
01JVXC4PARHT6FMXR1M49QCM6S,13,2,9,1.0,0,0,15,0,9,1.0,asocial
01JVXC4PARHT6FMXR1M49QCM6S,13,3,9,1.0,0,0,10,3,9,1.0,asocial
01JVXC4PARHT6FMXR1M49QCM6S,13,4,9,1.0,0,0,12,0,9,1.0,asocial
01JVXC4PARHT6FMXR1M49QCM6S,13,5,9,1.0,0,0,9,1,9,1.0,asocial
01JVXC4PARHT6FMXR1M49QCM6S,13,6,9,1.0,0,0,11,2,9,1.0,asocial
01JVXC4PARHT6FMXR1M49QCM6S,13,7,9,1.0,0,0,2,0,9,1.0,asocial
01JVXC4PARHT6FMXR1M49QCM6S,13,8,9,1.0,0,0,12,0,9,1.0,asocial
01JVXC4PARHT6FMXR1M49QCM6S,13,9,9,1.0,11,1,12,2,9,1.0,asocial
01JVXC4PARHT6FMXR1M49QCM6S,14,0,9,1.0,0,0,14,0,9,1.0,asocial
01JVXC4PARHT6FMXR1M49QCM6S,14,1,9,1.0,0,0,15,2,9,1.0,asocial
01JVXC4PARHT6FMXR1M49QCM6S,14,2,9,1.0,0,0,16,1,9,1.0,asocial
01JVXC4PARHT6FMXR1M49QCM6S,14,3,9,1.0,0,0,11,3,9,1.0,asocial
01JVXC4PARHT6FMXR1M49QCM6S,14,4,9,1.0,0,0,13,0,9,1.0,asocial
01JVXC4PARHT6FMXR1M49QCM6S,14,5,9,1.0,0,0,10,1,9,1.0,asocial
01JVXC4PARHT6FMXR1M49QCM6S,14,6,9,1.0,0,0,12,2,9,1.0,asocial
01JVXC4PARHT6FMXR1M49QCM6S,14,7,9,1.0,0,0,2,0,9,1.0,asocial
01JVXC4PARHT6FMXR1M49QCM6S,14,8,9,1.0,0,0,13,0,9,1.0,asocial
01JVXC4PARHT6FMXR1M49QCM6S,14,9,9,1.0,12,1,13,2,9,1.0,asocial
01JVXC4PARHT6FMXR1M49QCM6S,15,0,9,1.0,0,0,15,0,9,1.0,asocial
01JVXC4PARHT6FMXR1M49QCM6S,15,1,9,1.0,0,0,16,2,9,1.0,asocial
01JVXC4PARHT6FMXR1M49QCM6S,15,2,9,1.0,0,0,17,1,9,1.0,asocial
01JVXC4PARHT6FMXR1M49QCM6S,15,3,9,1.0,0,0,12,3,9,1.0,asocial
01JVXC4PARHT6FMXR1M49QCM6S,15,4,9,1.0,0,0,14,0,9,1.0,asocial
01JVXC4PARHT6FMXR1M49QCM6S,15,5,9,1.0,0,0,11,1,9,1.0,asocial
01JVXC4PARHT6FMXR1M49QCM6S,15,6,9,1.0,0,0,13,2,9,1.0,asocial
01JVXC4PARHT6FMXR1M49QCM6S,15,7,9,1.0,0,0,2,0,9,1.0,asocial
01JVXC4PARHT6FMXR1M49QCM6S,15,8,9,1.0,0,0,15,0,9,1.0,asocial
01JVXC4PARHT6FMXR1M49QCM6S,15,9,9,1.0,13,1,14,2,9,1.0,asocial
01JVXC4PARHT6FMXR1M49QCM6S,16,0,9,1.0,0,0,16,0,9,1.0,asocial
01JVXC4PARHT6FMXR1M49QCM6S,16,1,9,1.0,0,0,17,2,9,1.0,asocial
01JVXC4PARHT6FMXR1M49QCM6S,16,2,9,1.0,0,0,18,1,9,1.0,asocial
01JVXC4PARHT6FMXR1M49QCM6S,16,3,9,1.0,0,0,13,3,9,1.0,asocial
01JVXC4PARHT6FMXR1M49QCM6S,16,4,9,1.0,0,0,15,0,9,1.0,asocial
01JVXC4PARHT6FMXR1M49QCM6S,16,5,9,1.0,0,0,12,1,9,1.0,asocial
01JVXC4PARHT6FMXR1M49QCM6S,16,6,9,1.0,0,0,14,2,9,1.0,asocial
01JVXC4PARHT6FMXR1M49QCM6S,16,7,9,1.0,0,0,2,0,9,1.0,asocial
01JVXC4PARHT6FMXR1M49QCM6S,16,8,9,1.0,0,0,16,0,9,1.0,asocial
01JVXC4PARHT6FMXR1M49QCM6S,16,9,9,1.0,14,1,16,2,9,1.0,asocial
01JVXC4PARHT6FMXR1M49QCM6S,17,0,9,1.0,0,0,18,0,9,1.0,asocial
01JVXC4PARHT6FMXR1M49QCM6S,17,1,9,1.0,0,0,18,2,9,1.0,asocial
01JVXC4PARHT6FMXR1M49QCM6S,17,2,9,1.0,0,0,19,1,9,1.0,asocial
01JVXC4PARHT6FMXR1M49QCM6S,17,3,9,1.0,0,0,14,3,9,1.0,asocial
01JVXC4PARHT6FMXR1M49QCM6S,17,4,9,1.0,0,0,16,0,9,1.0,asocial
01JVXC4PARHT6FMXR1M49QCM6S,17,5,9,1.0,0,0,13,1,9,1.0,asocial
01JVXC4PARHT6FMXR1M49QCM6S,17,6,9,1.0,0,0,15,2,9,1.0,asocial
01JVXC4PARHT6FMXR1M49QCM6S,17,7,9,1.0,0,0,2,0,9,1.0,asocial
01JVXC4PARHT6FMXR1M49QCM6S,17,8,9,1.0,0,0,17,0,9,1.0,asocial
01JVXC4PARHT6FMXR1M49QCM6S,17,9,9,1.0,15,1,17,2,9,1.0,asocial
01JVXC4PARHT6FMXR1M49QCM6S,18,0,9,1.0,0,0,19,0,9,1.0,asocial
01JVXC4PARHT6FMXR1M49QCM6S,18,1,9,1.0,0,0,18,3,9,1.0,asocial
01JVXC4PARHT6FMXR1M49QCM6S,18,2,9,1.0,0,0,20,1,9,1.0,asocial
01JVXC4PARHT6FMXR1M49QCM6S,18,3,9,1.0,0,0,15,3,9,1.0,asocial
01JVXC4PARHT6FMXR1M49QCM6S,18,4,9,1.0,0,0,18,0,9,1.0,asocial
01JVXC4PARHT6FMXR1M49QCM6S,18,5,9,1.0,0,0,14,1,9,1.0,asocial
01JVXC4PARHT6FMXR1M49QCM6S,18,6,9,1.0,0,0,15,3,9,1.0,asocial
01JVXC4PARHT6FMXR1M49QCM6S,18,7,9,1.0,0,0,2,0,9,1.0,asocial
01JVXC4PARHT6FMXR1M49QCM6S,18,8,9,1.0,0,0,18,0,9,1.0,asocial
01JVXC4PARHT6FMXR1M49QCM6S,18,9,9,1.0,16,1,18,2,9,1.0,asocial
01JVXC4PARHT6FMXR1M49QCM6S,19,0,9,1.0,0,0,20,0,9,1.0,asocial
01JVXC4PARHT6FMXR1M49QCM6S,19,1,9,1.0,0,0,19,3,9,1.0,asocial
01JVXC4PARHT6FMXR1M49QCM6S,19,2,9,1.0,0,0,20,2,9,1.0,asocial
01JVXC4PARHT6FMXR1M49QCM6S,19,3,9,1.0,0,0,16,3,9,1.0,asocial
01JVXC4PARHT6FMXR1M49QCM6S,19,4,9,1.0,0,0,19,0,9,1.0,asocial
01JVXC4PARHT6FMXR1M49QCM6S,19,5,9,1.0,0,0,15,1,9,1.0,asocial
01JVXC4PARHT6FMXR1M49QCM6S,19,6,9,1.0,0,0,17,3,9,1.0,asocial
01JVXC4PARHT6FMXR1M49QCM6S,19,7,9,1.0,0,0,2,0,9,1.0,asocial
01JVXC4PARHT6FMXR1M49QCM6S,19,8,9,1.0,0,0,19,0,9,1.0,asocial
01JVXC4PARHT6FMXR1M49QCM6S,19,9,9,1.0,17,1,19,2,9,1.0,asocial
01JVXC4PARHT6FMXR1M49QCM6S,20,0,9,1.0,0,0,21,0,9,1.0,asocial
01JVXC4PARHT6FMXR1M49QCM6S,20,1,9,1.0,0,0,20,3,9,1.0,asocial
01JVXC4PARHT6FMXR1M49QCM6S,20,2,9,1.0,0,0,21,2,9,1.0,asocial
01JVXC4PARHT6FMXR1M49QCM6S,20,3,9,1.0,0,0,17,3,9,1.0,asocial
01JVXC4PARHT6FMXR1M49QCM6S,20,4,9,1.0,0,0,20,0,9,1.0,asocial
01JVXC4PARHT6FMXR1M49QCM6S,20,5,9,1.0,0,0,17,1,9,1.0,asocial
01JVXC4PARHT6FMXR1M49QCM6S,20,6,9,1.0,0,0,18,3,9,1.0,asocial
01JVXC4PARHT6FMXR1M49QCM6S,20,7,9,1.0,0,0,2,0,9,1.0,asocial
01JVXC4PARHT6FMXR1M49QCM6S,20,8,9,1.0,0,0,20,0,9,1.0,asocial
01JVXC4PARHT6FMXR1M49QCM6S,20,9,9,1.0,18,1,20,2,9,1.0,asocial
01JVXC4PARHT6FMXR1M49QCM6S,21,0,9,1.0,0,0,21,1,9,1.0,asocial
01JVXC4PARHT6FMXR1M49QCM6S,21,1,9,1.0,0,0,21,3,9,1.0,asocial
01JVXC4PARHT6FMXR1M49QCM6S,21,2,9,1.0,0,0,22,2,9,1.0,asocial
01JVXC4PARHT6FMXR1M49QCM6S,21,3,9,1.0,0,0,19,3,9,1.0,asocial
01JVXC4PARHT6FMXR1M49QCM6S,21,4,9,1.0,0,0,21,0,9,1.0,asocial
01JVXC4PARHT6FMXR1M49QCM6S,21,5,9,1.0,0,0,18,1,9,1.0,asocial
01JVXC4PARHT6FMXR1M49QCM6S,21,6,9,1.0,0,0,19,3,9,1.0,asocial
01JVXC4PARHT6FMXR1M49QCM6S,21,7,9,1.0,0,0,2,0,9,1.0,asocial
01JVXC4PARHT6FMXR1M49QCM6S,21,8,9,1.0,0,0,20,1,9,1.0,asocial
01JVXC4PARHT6FMXR1M49QCM6S,21,9,9,1.0,19,1,21,2,9,1.0,asocial
01JVXC4PARHT6FMXR1M49QCM6S,22,0,9,1.0,0,0,22,1,9,1.0,asocial
01JVXC4PARHT6FMXR1M49QCM6S,22,1,9,1.0,0,0,22,3,9,1.0,asocial
01JVXC4PARHT6FMXR1M49QCM6S,22,2,9,1.0,0,0,23,2,9,1.0,asocial
01JVXC4PARHT6FMXR1M49QCM6S,22,3,9,1.0,0,0,20,3,9,1.0,asocial
01JVXC4PARHT6FMXR1M49QCM6S,22,4,9,1.0,0,0,22,0,9,1.0,asocial
01JVXC4PARHT6FMXR1M49QCM6S,22,5,9,1.0,0,0,19,1,9,1.0,asocial
01JVXC4PARHT6FMXR1M49QCM6S,22,6,9,1.0,0,0,20,3,9,1.0,asocial
01JVXC4PARHT6FMXR1M49QCM6S,22,7,9,1.0,0,0,2,0,9,1.0,asocial
01JVXC4PARHT6FMXR1M49QCM6S,22,8,9,1.0,0,0,22,1,9,1.0,asocial
01JVXC4PARHT6FMXR1M49QCM6S,22,9,9,1.0,20,1,22,2,9,1.0,asocial
01JVXC4PARHT6FMXR1M49QCM6S,23,0,9,1.0,0,0,22,2,9,1.0,asocial
01JVXC4PARHT6FMXR1M49QCM6S,23,1,9,1.0,0,0,23,3,9,1.0,asocial
01JVXC4PARHT6FMXR1M49QCM6S,23,2,9,1.0,0,0,24,2,9,1.0,asocial
01JVXC4PARHT6FMXR1M49QCM6S,23,3,9,1.0,0,0,20,4,9,1.0,asocial
01JVXC4PARHT6FMXR1M49QCM6S,23,4,9,1.0,0,0,23,0,9,1.0,asocial
01JVXC4PARHT6FMXR1M49QCM6S,23,5,9,1.0,0,0,20,1,9,1.0,asocial
01JVXC4PARHT6FMXR1M49QCM6S,23,6,9,1.0,0,0,21,3,9,1.0,asocial
01JVXC4PARHT6FMXR1M49QCM6S,23,7,9,1.0,0,0,2,0,9,1.0,asocial
01JVXC4PARHT6FMXR1M49QCM6S,23,8,9,1.0,0,0,23,1,9,1.0,asocial
01JVXC4PARHT6FMXR1M49QCM6S,23,9,9,1.0,21,1,24,2,9,1.0,asocial
01JVXC4PARHT6FMXR1M49QCM6S,24,0,9,0.0,0,0,23,2,9,1.0,asocial
01JVXC4PARHT6FMXR1M49QCM6S,24,1,9,0.0,0,0,24,3,9,1.0,asocial
01JVXC4PARHT6FMXR1M49QCM6S,24,2,9,0.0,0,0,25,2,9,1.0,asocial
01JVXC4PARHT6FMXR1M49QCM6S,24,3,9,0.0,0,0,21,4,9,1.0,asocial
01JVXC4PARHT6FMXR1M49QCM6S,24,4,9,0.0,0,0,24,0,9,1.0,asocial
01JVXC4PARHT6FMXR1M49QCM6S,24,5,9,0.0,0,0,21,1,9,1.0,asocial
01JVXC4PARHT6FMXR1M49QCM6S,24,6,9,0.0,0,0,22,3,9,1.0,asocial
01JVXC4PARHT6FMXR1M49QCM6S,24,7,9,0.0,0,0,3,0,9,1.0,asocial
01JVXC4PARHT6FMXR1M49QCM6S,24,8,9,0.0,0,0,24,1,9,1.0,asocial
01JVXC4PARHT6FMXR1M49QCM6S,24,9,9,0.0,22,1,25,2,9,1.0,asocial
01JVXC4PARHT6FMXR1M49QCM6S,25,0,9,1.0,0,0,23,3,9,0.0,asocial
01JVXC4PARHT6FMXR1M49QCM6S,25,1,9,1.0,0,0,25,3,9,0.0,asocial
01JVXC4PARHT6FMXR1M49QCM6S,25,2,9,1.0,0,0,26,2,9,0.0,asocial
01JVXC4PARHT6FMXR1M49QCM6S,25,3,9,1.0,0,0,22,4,9,0.0,asocial
01JVXC4PARHT6FMXR1M49QCM6S,25,4,9,1.0,0,0,25,0,9,0.0,asocial
01JVXC4PARHT6FMXR1M49QCM6S,25,5,9,1.0,0,0,22,1,9,0.0,asocial
01JVXC4PARHT6FMXR1M49QCM6S,25,6,9,1.0,0,0,23,3,9,0.0,asocial
01JVXC4PARHT6FMXR1M49QCM6S,25,7,9,1.0,0,0,3,0,9,0.0,asocial
01JVXC4PARHT6FMXR1M49QCM6S,25,8,9,1.0,0,0,25,1,9,0.0,asocial
01JVXC4PARHT6FMXR1M49QCM6S,25,9,9,1.0,22,2,26,3,9,0.0,asocial
01JVXC4PARHT6FMXR1M49QCM6S,26,0,9,1.0,0,0,23,4,9,1.0,asocial
01JVXC4PARHT6FMXR1M49QCM6S,26,1,9,1.0,0,0,25,3,9,1.0,asocial
01JVXC4PARHT6FMXR1M49QCM6S,26,2,9,1.0,0,0,27,2,9,1.0,asocial
01JVXC4PARHT6FMXR1M49QCM6S,26,3,9,1.0,0,0,24,4,9,1.0,asocial
01JVXC4PARHT6FMXR1M49QCM6S,26,4,9,1.0,0,0,26,0,9,1.0,asocial
01JVXC4PARHT6FMXR1M49QCM6S,26,5,9,1.0,0,0,23,1,9,1.0,asocial
01JVXC4PARHT6FMXR1M49QCM6S,26,6,9,1.0,0,0,24,3,9,1.0,asocial
01JVXC4PARHT6FMXR1M49QCM6S,26,7,9,1.0,0,0,3,0,9,1.0,asocial
01JVXC4PARHT6FMXR1M49QCM6S,26,8,9,1.0,0,0,25,3,9,1.0,asocial
01JVXC4PARHT6FMXR1M49QCM6S,26,9,9,1.0,23,2,27,3,9,1.0,asocial
01JVXC4PARHT6FMXR1M49QCM6S,27,0,9,1.0,0,0,24,4,9,1.0,asocial
01JVXC4PARHT6FMXR1M49QCM6S,27,1,9,1.0,0,0,26,3,9,1.0,asocial
01JVXC4PARHT6FMXR1M49QCM6S,27,2,9,1.0,0,0,28,2,9,1.0,asocial
01JVXC4PARHT6FMXR1M49QCM6S,27,3,9,1.0,0,0,27,4,9,1.0,asocial
01JVXC4PARHT6FMXR1M49QCM6S,27,4,9,1.0,0,0,26,0,9,1.0,asocial
01JVXC4PARHT6FMXR1M49QCM6S,27,5,9,1.0,0,0,24,1,9,1.0,asocial
01JVXC4PARHT6FMXR1M49QCM6S,27,6,9,1.0,0,0,25,3,9,1.0,asocial
01JVXC4PARHT6FMXR1M49QCM6S,27,7,9,1.0,0,0,3,0,9,1.0,asocial
01JVXC4PARHT6FMXR1M49QCM6S,27,8,9,1.0,0,0,26,3,9,1.0,asocial
01JVXC4PARHT6FMXR1M49QCM6S,27,9,9,1.0,24,2,28,3,9,1.0,asocial
01JVXC4PARHT6FMXR1M49QCM6S,28,0,9,1.0,0,0,24,5,9,1.0,asocial
01JVXC4PARHT6FMXR1M49QCM6S,28,1,9,1.0,0,0,26,3,9,1.0,asocial
01JVXC4PARHT6FMXR1M49QCM6S,28,2,9,1.0,0,0,29,2,9,1.0,asocial
01JVXC4PARHT6FMXR1M49QCM6S,28,3,9,1.0,0,0,29,4,9,1.0,asocial
01JVXC4PARHT6FMXR1M49QCM6S,28,4,9,1.0,0,0,26,0,9,1.0,asocial
01JVXC4PARHT6FMXR1M49QCM6S,28,5,9,1.0,0,0,26,2,9,1.0,asocial
01JVXC4PARHT6FMXR1M49QCM6S,28,6,9,1.0,0,0,26,3,9,1.0,asocial
01JVXC4PARHT6FMXR1M49QCM6S,28,7,9,1.0,0,0,3,0,9,1.0,asocial
01JVXC4PARHT6FMXR1M49QCM6S,28,8,9,1.0,0,0,27,3,9,1.0,asocial
01JVXC4PARHT6FMXR1M49QCM6S,28,9,9,1.0,25,2,29,3,9,1.0,asocial
01JVXC4PARHT6FMXR1M49QCM6S,29,0,9,0.0,0,0,25,5,9,1.0,asocial
01JVXC4PARHT6FMXR1M49QCM6S,29,1,9,0.0,0,0,26,3,9,1.0,asocial
01JVXC4PARHT6FMXR1M49QCM6S,29,2,9,0.0,0,0,30,3,9,1.0,asocial
01JVXC4PARHT6FMXR1M49QCM6S,29,3,9,0.0,0,0,31,4,9,1.0,asocial
01JVXC4PARHT6FMXR1M49QCM6S,29,4,9,0.0,0,0,27,0,9,1.0,asocial
01JVXC4PARHT6FMXR1M49QCM6S,29,5,9,0.0,0,0,27,2,9,1.0,asocial
01JVXC4PARHT6FMXR1M49QCM6S,29,6,9,0.0,0,0,26,4,9,1.0,asocial
01JVXC4PARHT6FMXR1M49QCM6S,29,7,9,0.0,0,0,3,0,9,1.0,asocial
01JVXC4PARHT6FMXR1M49QCM6S,29,8,9,0.0,0,0,28,3,9,1.0,asocial
01JVXC4PARHT6FMXR1M49QCM6S,29,9,9,0.0,26,2,30,3,9,1.0,asocial
01JVXC4PARHT6FMXR1M49QCM6S,30,0,9,1.0,0,0,26,5,9,0.0,asocial
01JVXC4PARHT6FMXR1M49QCM6S,30,1,9,1.0,0,0,26,3,9,0.0,asocial
01JVXC4PARHT6FMXR1M49QCM6S,30,2,9,1.0,0,0,31,3,9,0.0,asocial
01JVXC4PARHT6FMXR1M49QCM6S,30,3,9,1.0,0,0,33,4,9,0.0,asocial
01JVXC4PARHT6FMXR1M49QCM6S,30,4,9,1.0,0,0,28,0,9,0.0,asocial
01JVXC4PARHT6FMXR1M49QCM6S,30,5,9,1.0,0,0,28,2,9,0.0,asocial
01JVXC4PARHT6FMXR1M49QCM6S,30,6,9,1.0,0,0,28,4,9,0.0,asocial
01JVXC4PARHT6FMXR1M49QCM6S,30,7,9,1.0,0,0,3,0,9,0.0,asocial
01JVXC4PARHT6FMXR1M49QCM6S,30,8,9,1.0,0,0,29,3,9,0.0,asocial
01JVXC4PARHT6FMXR1M49QCM6S,30,9,9,1.0,26,3,30,4,9,0.0,asocial
01JVXC4PARHT6FMXR1M49QCM6S,31,0,9,1.0,0,0,26,6,9,1.0,asocial
01JVXC4PARHT6FMXR1M49QCM6S,31,1,9,1.0,0,0,26,3,9,1.0,asocial
01JVXC4PARHT6FMXR1M49QCM6S,31,2,9,1.0,0,0,32,3,9,1.0,asocial
01JVXC4PARHT6FMXR1M49QCM6S,31,3,9,1.0,0,0,35,4,9,1.0,asocial
01JVXC4PARHT6FMXR1M49QCM6S,31,4,9,1.0,0,0,30,0,9,1.0,asocial
01JVXC4PARHT6FMXR1M49QCM6S,31,5,9,1.0,0,0,29,2,9,1.0,asocial
01JVXC4PARHT6FMXR1M49QCM6S,31,6,9,1.0,0,0,29,4,9,1.0,asocial
01JVXC4PARHT6FMXR1M49QCM6S,31,7,9,1.0,0,0,3,0,9,1.0,asocial
01JVXC4PARHT6FMXR1M49QCM6S,31,8,9,1.0,0,0,30,3,9,1.0,asocial
01JVXC4PARHT6FMXR1M49QCM6S,31,9,9,1.0,27,3,31,4,9,1.0,asocial
01JVXC4PARHT6FMXR1M49QCM6S,32,0,9,1.0,0,0,28,6,9,1.0,asocial
01JVXC4PARHT6FMXR1M49QCM6S,32,1,9,1.0,0,0,26,3,9,1.0,asocial
01JVXC4PARHT6FMXR1M49QCM6S,32,2,9,1.0,0,0,33,3,9,1.0,asocial
01JVXC4PARHT6FMXR1M49QCM6S,32,3,9,1.0,0,0,37,4,9,1.0,asocial
01JVXC4PARHT6FMXR1M49QCM6S,32,4,9,1.0,0,0,30,1,9,1.0,asocial
01JVXC4PARHT6FMXR1M49QCM6S,32,5,9,1.0,0,0,30,2,9,1.0,asocial
01JVXC4PARHT6FMXR1M49QCM6S,32,6,9,1.0,0,0,30,4,9,1.0,asocial
01JVXC4PARHT6FMXR1M49QCM6S,32,7,9,1.0,0,0,3,0,9,1.0,asocial
01JVXC4PARHT6FMXR1M49QCM6S,32,8,9,1.0,0,0,31,3,9,1.0,asocial
01JVXC4PARHT6FMXR1M49QCM6S,32,9,9,1.0,28,3,32,4,9,1.0,asocial
01JVXC4PARHT6FMXR1M49QCM6S,33,0,9,1.0,0,0,29,6,9,1.0,asocial
01JVXC4PARHT6FMXR1M49QCM6S,33,1,9,1.0,0,0,27,3,9,1.0,asocial
01JVXC4PARHT6FMXR1M49QCM6S,33,2,9,1.0,0,0,33,4,9,1.0,asocial
01JVXC4PARHT6FMXR1M49QCM6S,33,3,9,1.0,0,0,38,5,9,1.0,asocial
01JVXC4PARHT6FMXR1M49QCM6S,33,4,9,1.0,0,0,31,1,9,1.0,asocial
01JVXC4PARHT6FMXR1M49QCM6S,33,5,9,1.0,0,0,31,2,9,1.0,asocial
01JVXC4PARHT6FMXR1M49QCM6S,33,6,9,1.0,0,0,31,4,9,1.0,asocial
01JVXC4PARHT6FMXR1M49QCM6S,33,7,9,1.0,0,0,3,0,9,1.0,asocial
01JVXC4PARHT6FMXR1M49QCM6S,33,8,9,1.0,0,0,31,4,9,1.0,asocial
01JVXC4PARHT6FMXR1M49QCM6S,33,9,9,1.0,29,3,33,4,9,1.0,asocial
01JVXC4PARHT6FMXR1M49QCM6S,34,0,9,1.0,0,0,30,6,9,1.0,asocial
01JVXC4PARHT6FMXR1M49QCM6S,34,1,9,1.0,0,0,27,3,9,1.0,asocial
01JVXC4PARHT6FMXR1M49QCM6S,34,2,9,1.0,0,0,34,4,9,1.0,asocial
01JVXC4PARHT6FMXR1M49QCM6S,34,3,9,1.0,0,0,40,5,9,1.0,asocial
01JVXC4PARHT6FMXR1M49QCM6S,34,4,9,1.0,0,0,32,1,9,1.0,asocial
01JVXC4PARHT6FMXR1M49QCM6S,34,5,9,1.0,0,0,32,2,9,1.0,asocial
01JVXC4PARHT6FMXR1M49QCM6S,34,6,9,1.0,0,0,32,4,9,1.0,asocial
01JVXC4PARHT6FMXR1M49QCM6S,34,7,9,1.0,0,0,4,0,9,1.0,asocial
01JVXC4PARHT6FMXR1M49QCM6S,34,8,9,1.0,0,0,32,4,9,1.0,asocial
01JVXC4PARHT6FMXR1M49QCM6S,34,9,9,1.0,30,3,34,4,9,1.0,asocial
01JVXC4PARHT6FMXR1M49QCM6S,35,0,9,1.0,0,0,31,6,9,1.0,asocial
01JVXC4PARHT6FMXR1M49QCM6S,35,1,9,1.0,0,0,28,3,9,1.0,asocial
01JVXC4PARHT6FMXR1M49QCM6S,35,2,9,1.0,0,0,35,4,9,1.0,asocial
01JVXC4PARHT6FMXR1M49QCM6S,35,3,9,1.0,0,0,42,5,9,1.0,asocial
01JVXC4PARHT6FMXR1M49QCM6S,35,4,9,1.0,0,0,32,2,9,1.0,asocial
01JVXC4PARHT6FMXR1M49QCM6S,35,5,9,1.0,0,0,33,2,9,1.0,asocial
01JVXC4PARHT6FMXR1M49QCM6S,35,6,9,1.0,0,0,33,4,9,1.0,asocial
01JVXC4PARHT6FMXR1M49QCM6S,35,7,9,1.0,0,0,4,0,9,1.0,asocial
01JVXC4PARHT6FMXR1M49QCM6S,35,8,9,1.0,0,0,33,4,9,1.0,asocial
01JVXC4PARHT6FMXR1M49QCM6S,35,9,9,1.0,31,3,35,4,9,1.0,asocial
01JVXC4PARHT6FMXR1M49QCM6S,36,0,9,1.0,0,0,33,6,9,1.0,asocial
01JVXC4PARHT6FMXR1M49QCM6S,36,1,9,1.0,0,0,28,3,9,1.0,asocial
01JVXC4PARHT6FMXR1M49QCM6S,36,2,9,1.0,0,0,36,4,9,1.0,asocial
01JVXC4PARHT6FMXR1M49QCM6S,36,3,9,1.0,0,0,43,6,9,1.0,asocial
01JVXC4PARHT6FMXR1M49QCM6S,36,4,9,1.0,0,0,33,2,9,1.0,asocial
01JVXC4PARHT6FMXR1M49QCM6S,36,5,9,1.0,0,0,34,2,9,1.0,asocial
01JVXC4PARHT6FMXR1M49QCM6S,36,6,9,1.0,0,0,34,4,9,1.0,asocial
01JVXC4PARHT6FMXR1M49QCM6S,36,7,9,1.0,0,0,4,0,9,1.0,asocial
01JVXC4PARHT6FMXR1M49QCM6S,36,8,9,1.0,0,0,33,5,9,1.0,asocial
01JVXC4PARHT6FMXR1M49QCM6S,36,9,9,1.0,32,3,36,4,9,1.0,asocial
01JVXC4PARHT6FMXR1M49QCM6S,37,0,9,1.0,0,0,34,6,9,1.0,asocial
01JVXC4PARHT6FMXR1M49QCM6S,37,1,9,1.0,0,0,28,3,9,1.0,asocial
01JVXC4PARHT6FMXR1M49QCM6S,37,2,9,1.0,0,0,37,4,9,1.0,asocial
01JVXC4PARHT6FMXR1M49QCM6S,37,3,9,1.0,0,0,45,6,9,1.0,asocial
01JVXC4PARHT6FMXR1M49QCM6S,37,4,9,1.0,0,0,33,3,9,1.0,asocial
01JVXC4PARHT6FMXR1M49QCM6S,37,5,9,1.0,0,0,35,2,9,1.0,asocial
01JVXC4PARHT6FMXR1M49QCM6S,37,6,9,1.0,0,0,35,4,9,1.0,asocial
01JVXC4PARHT6FMXR1M49QCM6S,37,7,9,1.0,0,0,4,0,9,1.0,asocial
01JVXC4PARHT6FMXR1M49QCM6S,37,8,9,1.0,0,0,34,5,9,1.0,asocial
01JVXC4PARHT6FMXR1M49QCM6S,37,9,9,1.0,33,3,37,5,9,1.0,asocial
01JVXC4PARHT6FMXR1M49QCM6S,38,0,9,1.0,0,0,34,7,9,1.0,asocial
01JVXC4PARHT6FMXR1M49QCM6S,38,1,9,1.0,0,0,28,3,9,1.0,asocial
01JVXC4PARHT6FMXR1M49QCM6S,38,2,9,1.0,0,0,39,4,9,1.0,asocial
01JVXC4PARHT6FMXR1M49QCM6S,38,3,9,1.0,0,0,46,6,9,1.0,asocial
01JVXC4PARHT6FMXR1M49QCM6S,38,4,9,1.0,0,0,34,3,9,1.0,asocial
01JVXC4PARHT6FMXR1M49QCM6S,38,5,9,1.0,0,0,35,3,9,1.0,asocial
01JVXC4PARHT6FMXR1M49QCM6S,38,6,9,1.0,0,0,36,4,9,1.0,asocial
01JVXC4PARHT6FMXR1M49QCM6S,38,7,9,1.0,0,0,4,0,9,1.0,asocial
01JVXC4PARHT6FMXR1M49QCM6S,38,8,9,1.0,0,0,34,6,9,1.0,asocial
01JVXC4PARHT6FMXR1M49QCM6S,38,9,9,1.0,34,3,39,5,9,1.0,asocial
01JVXC4PARHT6FMXR1M49QCM6S,39,0,9,1.0,0,0,35,7,9,1.0,asocial
01JVXC4PARHT6FMXR1M49QCM6S,39,1,9,1.0,0,0,28,3,9,1.0,asocial
01JVXC4PARHT6FMXR1M49QCM6S,39,2,9,1.0,0,0,40,4,9,1.0,asocial
01JVXC4PARHT6FMXR1M49QCM6S,39,3,9,1.0,0,0,47,6,9,1.0,asocial
01JVXC4PARHT6FMXR1M49QCM6S,39,4,9,1.0,0,0,34,3,9,1.0,asocial
01JVXC4PARHT6FMXR1M49QCM6S,39,5,9,1.0,0,0,36,3,9,1.0,asocial
01JVXC4PARHT6FMXR1M49QCM6S,39,6,9,1.0,0,0,39,4,9,1.0,asocial
01JVXC4PARHT6FMXR1M49QCM6S,39,7,9,1.0,0,0,4,0,9,1.0,asocial
01JVXC4PARHT6FMXR1M49QCM6S,39,8,9,1.0,0,0,35,6,9,1.0,asocial
01JVXC4PARHT6FMXR1M49QCM6S,39,9,9,1.0,35,3,41,5,9,1.0,asocial
01JVXC4PARHT6FMXR1M49QCM6S,40,0,9,1.0,0,0,36,7,9,1.0,asocial
01JVXC4PARHT6FMXR1M49QCM6S,40,1,9,1.0,0,0,28,3,9,1.0,asocial
01JVXC4PARHT6FMXR1M49QCM6S,40,2,9,1.0,0,0,41,4,9,1.0,asocial
01JVXC4PARHT6FMXR1M49QCM6S,40,3,9,1.0,0,0,49,6,9,1.0,asocial
01JVXC4PARHT6FMXR1M49QCM6S,40,4,9,1.0,0,0,35,3,9,1.0,asocial
01JVXC4PARHT6FMXR1M49QCM6S,40,5,9,1.0,0,0,37,3,9,1.0,asocial
01JVXC4PARHT6FMXR1M49QCM6S,40,6,9,1.0,0,0,40,4,9,1.0,asocial
01JVXC4PARHT6FMXR1M49QCM6S,40,7,9,1.0,0,0,4,0,9,1.0,asocial
01JVXC4PARHT6FMXR1M49QCM6S,40,8,9,1.0,0,0,36,6,9,1.0,asocial
01JVXC4PARHT6FMXR1M49QCM6S,40,9,9,1.0,36,3,43,5,9,1.0,asocial
01JVXC4PARHT6FMXR1M49QCM6S,41,0,9,1.0,0,0,38,7,9,1.0,asocial
01JVXC4PARHT6FMXR1M49QCM6S,41,1,9,1.0,0,0,28,3,9,1.0,asocial
01JVXC4PARHT6FMXR1M49QCM6S,41,2,9,1.0,0,0,42,4,9,1.0,asocial
01JVXC4PARHT6FMXR1M49QCM6S,41,3,9,1.0,0,0,50,6,9,1.0,asocial
01JVXC4PARHT6FMXR1M49QCM6S,41,4,9,1.0,0,0,35,3,9,1.0,asocial
01JVXC4PARHT6FMXR1M49QCM6S,41,5,9,1.0,0,0,38,4,9,1.0,asocial
01JVXC4PARHT6FMXR1M49QCM6S,41,6,9,1.0,0,0,41,4,9,1.0,asocial
01JVXC4PARHT6FMXR1M49QCM6S,41,7,9,1.0,0,0,4,0,9,1.0,asocial
01JVXC4PARHT6FMXR1M49QCM6S,41,8,9,1.0,0,0,37,6,9,1.0,asocial
01JVXC4PARHT6FMXR1M49QCM6S,41,9,9,1.0,37,3,45,5,9,1.0,asocial
01JVXC4PARHT6FMXR1M49QCM6S,42,0,9,1.0,0,0,39,7,9,1.0,asocial
01JVXC4PARHT6FMXR1M49QCM6S,42,1,9,1.0,0,0,28,3,9,1.0,asocial
01JVXC4PARHT6FMXR1M49QCM6S,42,2,9,1.0,0,0,43,4,9,1.0,asocial
01JVXC4PARHT6FMXR1M49QCM6S,42,3,9,1.0,0,0,52,6,9,1.0,asocial
01JVXC4PARHT6FMXR1M49QCM6S,42,4,9,1.0,0,0,35,3,9,1.0,asocial
01JVXC4PARHT6FMXR1M49QCM6S,42,5,9,1.0,0,0,40,4,9,1.0,asocial
01JVXC4PARHT6FMXR1M49QCM6S,42,6,9,1.0,0,0,42,4,9,1.0,asocial
01JVXC4PARHT6FMXR1M49QCM6S,42,7,9,1.0,0,0,4,0,9,1.0,asocial
01JVXC4PARHT6FMXR1M49QCM6S,42,8,9,1.0,0,0,38,6,9,1.0,asocial
01JVXC4PARHT6FMXR1M49QCM6S,42,9,9,1.0,38,3,47,5,9,1.0,asocial
01JVXC4PARHT6FMXR1M49QCM6S,43,0,9,1.0,0,0,40,7,9,1.0,asocial
01JVXC4PARHT6FMXR1M49QCM6S,43,1,9,1.0,0,0,29,3,9,1.0,asocial
01JVXC4PARHT6FMXR1M49QCM6S,43,2,9,1.0,0,0,44,4,9,1.0,asocial
01JVXC4PARHT6FMXR1M49QCM6S,43,3,9,1.0,0,0,53,6,9,1.0,asocial
01JVXC4PARHT6FMXR1M49QCM6S,43,4,9,1.0,0,0,35,3,9,1.0,asocial
01JVXC4PARHT6FMXR1M49QCM6S,43,5,9,1.0,0,0,41,4,9,1.0,asocial
01JVXC4PARHT6FMXR1M49QCM6S,43,6,9,1.0,0,0,43,4,9,1.0,asocial
01JVXC4PARHT6FMXR1M49QCM6S,43,7,9,1.0,0,0,5,0,9,1.0,asocial
01JVXC4PARHT6FMXR1M49QCM6S,43,8,9,1.0,0,0,40,6,9,1.0,asocial
01JVXC4PARHT6FMXR1M49QCM6S,43,9,9,1.0,39,3,48,5,9,1.0,asocial
01JVXC4PARHT6FMXR1M49QCM6S,44,0,9,1.0,0,0,41,7,9,1.0,asocial
01JVXC4PARHT6FMXR1M49QCM6S,44,1,9,1.0,0,0,31,3,9,1.0,asocial
01JVXC4PARHT6FMXR1M49QCM6S,44,2,9,1.0,0,0,45,4,9,1.0,asocial
01JVXC4PARHT6FMXR1M49QCM6S,44,3,9,1.0,0,0,53,7,9,1.0,asocial
01JVXC4PARHT6FMXR1M49QCM6S,44,4,9,1.0,0,0,35,3,9,1.0,asocial
01JVXC4PARHT6FMXR1M49QCM6S,44,5,9,1.0,0,0,42,4,9,1.0,asocial
01JVXC4PARHT6FMXR1M49QCM6S,44,6,9,1.0,0,0,43,5,9,1.0,asocial
01JVXC4PARHT6FMXR1M49QCM6S,44,7,9,1.0,0,0,5,0,9,1.0,asocial
01JVXC4PARHT6FMXR1M49QCM6S,44,8,9,1.0,0,0,41,6,9,1.0,asocial
01JVXC4PARHT6FMXR1M49QCM6S,44,9,9,1.0,40,3,50,5,9,1.0,asocial
01JVXC4PARHT6FMXR1M49QCM6S,45,0,9,1.0,0,0,43,7,9,1.0,asocial
01JVXC4PARHT6FMXR1M49QCM6S,45,1,9,1.0,0,0,32,3,9,1.0,asocial
01JVXC4PARHT6FMXR1M49QCM6S,45,2,9,1.0,0,0,45,5,9,1.0,asocial
01JVXC4PARHT6FMXR1M49QCM6S,45,3,9,1.0,0,0,53,8,9,1.0,asocial
01JVXC4PARHT6FMXR1M49QCM6S,45,4,9,1.0,0,0,35,3,9,1.0,asocial
01JVXC4PARHT6FMXR1M49QCM6S,45,5,9,1.0,0,0,43,4,9,1.0,asocial
01JVXC4PARHT6FMXR1M49QCM6S,45,6,9,1.0,0,0,44,5,9,1.0,asocial
01JVXC4PARHT6FMXR1M49QCM6S,45,7,9,1.0,0,0,6,0,9,1.0,asocial
01JVXC4PARHT6FMXR1M49QCM6S,45,8,9,1.0,0,0,42,6,9,1.0,asocial
01JVXC4PARHT6FMXR1M49QCM6S,45,9,9,1.0,41,3,51,5,9,1.0,asocial
01JVXC4PARHT6FMXR1M49QCM6S,46,0,9,1.0,0,0,44,7,9,1.0,asocial
01JVXC4PARHT6FMXR1M49QCM6S,46,1,9,1.0,0,0,32,3,9,1.0,asocial
01JVXC4PARHT6FMXR1M49QCM6S,46,2,9,1.0,0,0,46,6,9,1.0,asocial
01JVXC4PARHT6FMXR1M49QCM6S,46,3,9,1.0,0,0,54,8,9,1.0,asocial
01JVXC4PARHT6FMXR1M49QCM6S,46,4,9,1.0,0,0,36,3,9,1.0,asocial
01JVXC4PARHT6FMXR1M49QCM6S,46,5,9,1.0,0,0,44,4,9,1.0,asocial
01JVXC4PARHT6FMXR1M49QCM6S,46,6,9,1.0,0,0,45,5,9,1.0,asocial
01JVXC4PARHT6FMXR1M49QCM6S,46,7,9,1.0,0,0,6,0,9,1.0,asocial
01JVXC4PARHT6FMXR1M49QCM6S,46,8,9,1.0,0,0,43,6,9,1.0,asocial
01JVXC4PARHT6FMXR1M49QCM6S,46,9,9,1.0,42,3,52,6,9,1.0,asocial
01JVXC4PARHT6FMXR1M49QCM6S,47,0,9,1.0,0,0,45,7,9,1.0,asocial
01JVXC4PARHT6FMXR1M49QCM6S,47,1,9,1.0,0,0,32,3,9,1.0,asocial
01JVXC4PARHT6FMXR1M49QCM6S,47,2,9,1.0,0,0,46,7,9,1.0,asocial
01JVXC4PARHT6FMXR1M49QCM6S,47,3,9,1.0,0,0,55,8,9,1.0,asocial
01JVXC4PARHT6FMXR1M49QCM6S,47,4,9,1.0,0,0,37,3,9,1.0,asocial
01JVXC4PARHT6FMXR1M49QCM6S,47,5,9,1.0,0,0,46,4,9,1.0,asocial
01JVXC4PARHT6FMXR1M49QCM6S,47,6,9,1.0,0,0,47,5,9,1.0,asocial
01JVXC4PARHT6FMXR1M49QCM6S,47,7,9,1.0,0,0,6,0,9,1.0,asocial
01JVXC4PARHT6FMXR1M49QCM6S,47,8,9,1.0,0,0,44,6,9,1.0,asocial
01JVXC4PARHT6FMXR1M49QCM6S,47,9,9,1.0,43,3,53,6,9,1.0,asocial
01JVXC4PARHT6FMXR1M49QCM6S,48,0,9,1.0,0,0,46,7,9,1.0,asocial
01JVXC4PARHT6FMXR1M49QCM6S,48,1,9,1.0,0,0,32,3,9,1.0,asocial
01JVXC4PARHT6FMXR1M49QCM6S,48,2,9,1.0,0,0,47,7,9,1.0,asocial
01JVXC4PARHT6FMXR1M49QCM6S,48,3,9,1.0,0,0,56,8,9,1.0,asocial
01JVXC4PARHT6FMXR1M49QCM6S,48,4,9,1.0,0,0,37,3,9,1.0,asocial
01JVXC4PARHT6FMXR1M49QCM6S,48,5,9,1.0,0,0,49,4,9,1.0,asocial
01JVXC4PARHT6FMXR1M49QCM6S,48,6,9,1.0,0,0,48,5,9,1.0,asocial
01JVXC4PARHT6FMXR1M49QCM6S,48,7,9,1.0,0,0,7,0,9,1.0,asocial
01JVXC4PARHT6FMXR1M49QCM6S,48,8,9,1.0,0,0,45,6,9,1.0,asocial
01JVXC4PARHT6FMXR1M49QCM6S,48,9,9,1.0,44,3,54,6,9,1.0,asocial
01JVXC4PARHT6FMXR1M49QCM6S,49,0,9,1.0,0,0,47,7,9,1.0,asocial
01JVXC4PARHT6FMXR1M49QCM6S,49,1,9,1.0,0,0,34,3,9,1.0,asocial
01JVXC4PARHT6FMXR1M49QCM6S,49,2,9,1.0,0,0,48,7,9,1.0,asocial
01JVXC4PARHT6FMXR1M49QCM6S,49,3,9,1.0,0,0,57,8,9,1.0,asocial
01JVXC4PARHT6FMXR1M49QCM6S,49,4,9,1.0,0,0,37,3,9,1.0,asocial
01JVXC4PARHT6FMXR1M49QCM6S,49,5,9,1.0,0,0,49,5,9,1.0,asocial
01JVXC4PARHT6FMXR1M49QCM6S,49,6,9,1.0,0,0,49,5,9,1.0,asocial
01JVXC4PARHT6FMXR1M49QCM6S,49,7,9,1.0,0,0,7,0,9,1.0,asocial
01JVXC4PARHT6FMXR1M49QCM6S,49,8,9,1.0,0,0,46,6,9,1.0,asocial
01JVXC4PARHT6FMXR1M49QCM6S,49,9,9,1.0,45,3,56,6,9,1.0,asocial
01JVXC4PARHT6FMXR1M49QCM6S,50,0,9,1.0,0,0,49,7,9,1.0,asocial
01JVXC4PARHT6FMXR1M49QCM6S,50,1,9,1.0,0,0,34,3,9,1.0,asocial
01JVXC4PARHT6FMXR1M49QCM6S,50,2,9,1.0,0,0,49,7,9,1.0,asocial
01JVXC4PARHT6FMXR1M49QCM6S,50,3,9,1.0,0,0,58,8,9,1.0,asocial
01JVXC4PARHT6FMXR1M49QCM6S,50,4,9,1.0,0,0,37,3,9,1.0,asocial
01JVXC4PARHT6FMXR1M49QCM6S,50,5,9,1.0,0,0,51,5,9,1.0,asocial
01JVXC4PARHT6FMXR1M49QCM6S,50,6,9,1.0,0,0,49,6,9,1.0,asocial
01JVXC4PARHT6FMXR1M49QCM6S,50,7,9,1.0,0,0,8,0,9,1.0,asocial
01JVXC4PARHT6FMXR1M49QCM6S,50,8,9,1.0,0,0,47,6,9,1.0,asocial
01JVXC4PARHT6FMXR1M49QCM6S,50,9,9,1.0,46,3,57,6,9,1.0,asocial
01JVXC4PARHT6FMXR1M49QCM6S,51,0,9,1.0,0,0,49,8,9,1.0,asocial
01JVXC4PARHT6FMXR1M49QCM6S,51,1,9,1.0,0,0,34,3,9,1.0,asocial
01JVXC4PARHT6FMXR1M49QCM6S,51,2,9,1.0,0,0,51,7,9,1.0,asocial
01JVXC4PARHT6FMXR1M49QCM6S,51,3,9,1.0,0,0,59,8,9,1.0,asocial
01JVXC4PARHT6FMXR1M49QCM6S,51,4,9,1.0,0,0,38,3,9,1.0,asocial
01JVXC4PARHT6FMXR1M49QCM6S,51,5,9,1.0,0,0,52,5,9,1.0,asocial
01JVXC4PARHT6FMXR1M49QCM6S,51,6,9,1.0,0,0,50,6,9,1.0,asocial
01JVXC4PARHT6FMXR1M49QCM6S,51,7,9,1.0,0,0,8,0,9,1.0,asocial
01JVXC4PARHT6FMXR1M49QCM6S,51,8,9,1.0,0,0,49,6,9,1.0,asocial
01JVXC4PARHT6FMXR1M49QCM6S,51,9,9,1.0,47,3,58,6,9,1.0,asocial
01JVXC51SFT28Q7E9G7G4MYSZN,1,0,8,1.0,0,0,0,0,-1,,asocial
01JVXC51SFT28Q7E9G7G4MYSZN,1,1,8,1.0,0,0,0,0,-1,,asocial
01JVXC51SFT28Q7E9G7G4MYSZN,1,2,8,1.0,0,0,0,0,-1,,asocial
01JVXC51SFT28Q7E9G7G4MYSZN,1,3,8,1.0,0,0,0,0,-1,,asocial
01JVXC51SFT28Q7E9G7G4MYSZN,1,4,8,1.0,0,0,0,0,-1,,asocial
01JVXC51SFT28Q7E9G7G4MYSZN,1,5,8,1.0,0,0,0,0,-1,,asocial
01JVXC51SFT28Q7E9G7G4MYSZN,1,6,8,1.0,0,0,0,0,-1,,asocial
01JVXC51SFT28Q7E9G7G4MYSZN,1,7,8,1.0,0,0,0,0,-1,,asocial
01JVXC51SFT28Q7E9G7G4MYSZN,1,8,8,1.0,0,0,0,0,-1,,asocial
01JVXC51SFT28Q7E9G7G4MYSZN,1,9,8,1.0,0,0,0,0,-1,,asocial
01JVXC51SFT28Q7E9G7G4MYSZN,2,0,8,1.0,0,0,1,0,8,1.0,asocial
01JVXC51SFT28Q7E9G7G4MYSZN,2,1,8,1.0,0,0,1,0,8,1.0,asocial
01JVXC51SFT28Q7E9G7G4MYSZN,2,2,8,1.0,0,0,1,0,8,1.0,asocial
01JVXC51SFT28Q7E9G7G4MYSZN,2,3,8,1.0,0,0,1,0,8,1.0,asocial
01JVXC51SFT28Q7E9G7G4MYSZN,2,4,8,1.0,0,0,1,0,8,1.0,asocial
01JVXC51SFT28Q7E9G7G4MYSZN,2,5,8,1.0,0,0,1,0,8,1.0,asocial
01JVXC51SFT28Q7E9G7G4MYSZN,2,6,8,1.0,0,0,1,0,8,1.0,asocial
01JVXC51SFT28Q7E9G7G4MYSZN,2,7,8,1.0,0,0,1,0,8,1.0,asocial
01JVXC51SFT28Q7E9G7G4MYSZN,2,8,8,1.0,1,0,1,0,8,1.0,asocial
01JVXC51SFT28Q7E9G7G4MYSZN,2,9,8,1.0,0,0,1,0,8,1.0,asocial
01JVXC51SFT28Q7E9G7G4MYSZN,3,0,8,1.0,0,0,2,0,8,1.0,asocial
01JVXC51SFT28Q7E9G7G4MYSZN,3,1,8,1.0,0,0,2,0,8,1.0,asocial
01JVXC51SFT28Q7E9G7G4MYSZN,3,2,8,1.0,0,0,2,0,8,1.0,asocial
01JVXC51SFT28Q7E9G7G4MYSZN,3,3,8,1.0,0,0,1,1,8,1.0,asocial
01JVXC51SFT28Q7E9G7G4MYSZN,3,4,8,1.0,0,0,2,0,8,1.0,asocial
01JVXC51SFT28Q7E9G7G4MYSZN,3,5,8,1.0,0,0,2,0,8,1.0,asocial
01JVXC51SFT28Q7E9G7G4MYSZN,3,6,8,1.0,0,0,2,0,8,1.0,asocial
01JVXC51SFT28Q7E9G7G4MYSZN,3,7,8,1.0,0,0,2,0,8,1.0,asocial
01JVXC51SFT28Q7E9G7G4MYSZN,3,8,8,1.0,2,0,2,0,8,1.0,asocial
01JVXC51SFT28Q7E9G7G4MYSZN,3,9,8,1.0,0,0,2,0,8,1.0,asocial
01JVXC51SFT28Q7E9G7G4MYSZN,4,0,8,1.0,0,0,3,0,8,1.0,asocial
01JVXC51SFT28Q7E9G7G4MYSZN,4,1,8,1.0,0,0,3,0,8,1.0,asocial
01JVXC51SFT28Q7E9G7G4MYSZN,4,2,8,1.0,0,0,3,0,8,1.0,asocial
01JVXC51SFT28Q7E9G7G4MYSZN,4,3,8,1.0,0,0,2,2,8,1.0,asocial
01JVXC51SFT28Q7E9G7G4MYSZN,4,4,8,1.0,0,0,3,0,8,1.0,asocial
01JVXC51SFT28Q7E9G7G4MYSZN,4,5,8,1.0,0,0,2,0,8,1.0,asocial
01JVXC51SFT28Q7E9G7G4MYSZN,4,6,8,1.0,0,0,3,0,8,1.0,asocial
01JVXC51SFT28Q7E9G7G4MYSZN,4,7,8,1.0,0,0,2,0,8,1.0,asocial
01JVXC51SFT28Q7E9G7G4MYSZN,4,8,8,1.0,3,0,3,0,8,1.0,asocial
01JVXC51SFT28Q7E9G7G4MYSZN,4,9,8,1.0,0,0,3,1,8,1.0,asocial
01JVXC51SFT28Q7E9G7G4MYSZN,5,0,8,1.0,0,0,4,0,8,1.0,asocial
01JVXC51SFT28Q7E9G7G4MYSZN,5,1,8,1.0,0,0,4,0,8,1.0,asocial
01JVXC51SFT28Q7E9G7G4MYSZN,5,2,8,1.0,0,0,5,0,8,1.0,asocial
01JVXC51SFT28Q7E9G7G4MYSZN,5,3,8,1.0,0,0,3,2,8,1.0,asocial
01JVXC51SFT28Q7E9G7G4MYSZN,5,4,8,1.0,0,0,4,0,8,1.0,asocial
01JVXC51SFT28Q7E9G7G4MYSZN,5,5,8,1.0,0,0,3,0,8,1.0,asocial
01JVXC51SFT28Q7E9G7G4MYSZN,5,6,8,1.0,0,0,4,0,8,1.0,asocial
01JVXC51SFT28Q7E9G7G4MYSZN,5,7,8,1.0,0,0,2,0,8,1.0,asocial
01JVXC51SFT28Q7E9G7G4MYSZN,5,8,8,1.0,4,0,4,0,8,1.0,asocial
01JVXC51SFT28Q7E9G7G4MYSZN,5,9,8,1.0,0,0,4,1,8,1.0,asocial
01JVXC51SFT28Q7E9G7G4MYSZN,6,0,8,1.0,0,0,5,0,8,1.0,asocial
01JVXC51SFT28Q7E9G7G4MYSZN,6,1,8,1.0,0,0,5,0,8,1.0,asocial
01JVXC51SFT28Q7E9G7G4MYSZN,6,2,8,1.0,0,0,6,0,8,1.0,asocial
01JVXC51SFT28Q7E9G7G4MYSZN,6,3,8,1.0,0,0,4,2,8,1.0,asocial
01JVXC51SFT28Q7E9G7G4MYSZN,6,4,8,1.0,0,0,4,0,8,1.0,asocial
01JVXC51SFT28Q7E9G7G4MYSZN,6,5,8,1.0,0,0,4,0,8,1.0,asocial
01JVXC51SFT28Q7E9G7G4MYSZN,6,6,8,1.0,0,0,6,0,8,1.0,asocial
01JVXC51SFT28Q7E9G7G4MYSZN,6,7,8,1.0,0,0,2,0,8,1.0,asocial
01JVXC51SFT28Q7E9G7G4MYSZN,6,8,8,1.0,5,0,5,0,8,1.0,asocial
01JVXC51SFT28Q7E9G7G4MYSZN,6,9,8,1.0,0,0,6,1,8,1.0,asocial
01JVXC51SFT28Q7E9G7G4MYSZN,7,0,8,1.0,0,0,6,0,8,1.0,asocial
01JVXC51SFT28Q7E9G7G4MYSZN,7,1,8,1.0,0,0,7,0,8,1.0,asocial
01JVXC51SFT28Q7E9G7G4MYSZN,7,2,8,1.0,0,0,7,0,8,1.0,asocial
01JVXC51SFT28Q7E9G7G4MYSZN,7,3,8,1.0,0,0,5,2,8,1.0,asocial
01JVXC51SFT28Q7E9G7G4MYSZN,7,4,8,1.0,0,0,5,0,8,1.0,asocial
01JVXC51SFT28Q7E9G7G4MYSZN,7,5,8,1.0,0,0,5,0,8,1.0,asocial
01JVXC51SFT28Q7E9G7G4MYSZN,7,6,8,1.0,0,0,7,0,8,1.0,asocial
01JVXC51SFT28Q7E9G7G4MYSZN,7,7,8,1.0,0,0,2,0,8,1.0,asocial
01JVXC51SFT28Q7E9G7G4MYSZN,7,8,8,1.0,6,0,6,0,8,1.0,asocial
01JVXC51SFT28Q7E9G7G4MYSZN,7,9,8,1.0,0,0,7,1,8,1.0,asocial
01JVXC51SFT28Q7E9G7G4MYSZN,8,0,8,1.0,0,0,8,0,8,1.0,asocial
01JVXC51SFT28Q7E9G7G4MYSZN,8,1,8,1.0,0,0,8,1,8,1.0,asocial
01JVXC51SFT28Q7E9G7G4MYSZN,8,2,8,1.0,0,0,8,0,8,1.0,asocial
01JVXC51SFT28Q7E9G7G4MYSZN,8,3,8,1.0,0,0,6,2,8,1.0,asocial
01JVXC51SFT28Q7E9G7G4MYSZN,8,4,8,1.0,0,0,6,0,8,1.0,asocial
01JVXC51SFT28Q7E9G7G4MYSZN,8,5,8,1.0,0,0,5,0,8,1.0,asocial
01JVXC51SFT28Q7E9G7G4MYSZN,8,6,8,1.0,0,0,7,1,8,1.0,asocial
01JVXC51SFT28Q7E9G7G4MYSZN,8,7,8,1.0,0,0,2,0,8,1.0,asocial
01JVXC51SFT28Q7E9G7G4MYSZN,8,8,8,1.0,7,0,7,0,8,1.0,asocial
01JVXC51SFT28Q7E9G7G4MYSZN,8,9,8,1.0,0,0,8,1,8,1.0,asocial
01JVXC51SFT28Q7E9G7G4MYSZN,9,0,8,1.0,0,0,9,0,8,1.0,asocial
01JVXC51SFT28Q7E9G7G4MYSZN,9,1,8,1.0,0,0,9,1,8,1.0,asocial
01JVXC51SFT28Q7E9G7G4MYSZN,9,2,8,1.0,0,0,9,0,8,1.0,asocial
01JVXC51SFT28Q7E9G7G4MYSZN,9,3,8,1.0,0,0,7,2,8,1.0,asocial
01JVXC51SFT28Q7E9G7G4MYSZN,9,4,8,1.0,0,0,8,0,8,1.0,asocial
01JVXC51SFT28Q7E9G7G4MYSZN,9,5,8,1.0,0,0,6,0,8,1.0,asocial
01JVXC51SFT28Q7E9G7G4MYSZN,9,6,8,1.0,0,0,8,1,8,1.0,asocial
01JVXC51SFT28Q7E9G7G4MYSZN,9,7,8,1.0,0,0,2,0,8,1.0,asocial
01JVXC51SFT28Q7E9G7G4MYSZN,9,8,8,1.0,8,0,8,0,8,1.0,asocial
01JVXC51SFT28Q7E9G7G4MYSZN,9,9,8,1.0,0,0,9,1,8,1.0,asocial
01JVXC51SFT28Q7E9G7G4MYSZN,10,0,8,1.0,0,0,10,0,8,1.0,asocial
01JVXC51SFT28Q7E9G7G4MYSZN,10,1,8,1.0,0,0,11,1,8,1.0,asocial
01JVXC51SFT28Q7E9G7G4MYSZN,10,2,8,1.0,0,0,10,0,8,1.0,asocial
01JVXC51SFT28Q7E9G7G4MYSZN,10,3,8,1.0,0,0,8,2,8,1.0,asocial
01JVXC51SFT28Q7E9G7G4MYSZN,10,4,8,1.0,0,0,9,0,8,1.0,asocial
01JVXC51SFT28Q7E9G7G4MYSZN,10,5,8,1.0,0,0,7,0,8,1.0,asocial
01JVXC51SFT28Q7E9G7G4MYSZN,10,6,8,1.0,0,0,8,2,8,1.0,asocial
01JVXC51SFT28Q7E9G7G4MYSZN,10,7,8,1.0,0,0,2,0,8,1.0,asocial
01JVXC51SFT28Q7E9G7G4MYSZN,10,8,8,1.0,9,0,9,0,8,1.0,asocial
01JVXC51SFT28Q7E9G7G4MYSZN,10,9,8,1.0,0,0,9,2,8,1.0,asocial
01JVXC51SFT28Q7E9G7G4MYSZN,11,0,8,1.0,0,0,11,0,8,1.0,asocial
01JVXC51SFT28Q7E9G7G4MYSZN,11,1,8,1.0,0,0,12,2,8,1.0,asocial
01JVXC51SFT28Q7E9G7G4MYSZN,11,2,8,1.0,0,0,11,0,8,1.0,asocial
01JVXC51SFT28Q7E9G7G4MYSZN,11,3,8,1.0,0,0,9,2,8,1.0,asocial
01JVXC51SFT28Q7E9G7G4MYSZN,11,4,8,1.0,0,0,10,0,8,1.0,asocial
01JVXC51SFT28Q7E9G7G4MYSZN,11,5,8,1.0,0,0,8,0,8,1.0,asocial
01JVXC51SFT28Q7E9G7G4MYSZN,11,6,8,1.0,0,0,9,2,8,1.0,asocial
01JVXC51SFT28Q7E9G7G4MYSZN,11,7,8,1.0,0,0,2,0,8,1.0,asocial
01JVXC51SFT28Q7E9G7G4MYSZN,11,8,8,1.0,10,0,10,0,8,1.0,asocial
01JVXC51SFT28Q7E9G7G4MYSZN,11,9,8,1.0,0,0,10,2,8,1.0,asocial
01JVXC51SFT28Q7E9G7G4MYSZN,12,0,8,1.0,0,0,12,0,8,1.0,asocial
01JVXC51SFT28Q7E9G7G4MYSZN,12,1,8,1.0,0,0,13,2,8,1.0,asocial
01JVXC51SFT28Q7E9G7G4MYSZN,12,2,8,1.0,0,0,13,0,8,1.0,asocial
01JVXC51SFT28Q7E9G7G4MYSZN,12,3,8,1.0,0,0,10,2,8,1.0,asocial
01JVXC51SFT28Q7E9G7G4MYSZN,12,4,8,1.0,0,0,11,0,8,1.0,asocial
01JVXC51SFT28Q7E9G7G4MYSZN,12,5,8,1.0,0,0,9,0,8,1.0,asocial
01JVXC51SFT28Q7E9G7G4MYSZN,12,6,8,1.0,0,0,10,2,8,1.0,asocial
01JVXC51SFT28Q7E9G7G4MYSZN,12,7,8,1.0,0,0,2,0,8,1.0,asocial
01JVXC51SFT28Q7E9G7G4MYSZN,12,8,8,1.0,11,0,11,0,8,1.0,asocial
01JVXC51SFT28Q7E9G7G4MYSZN,12,9,8,1.0,0,0,11,2,8,1.0,asocial
01JVXC51SFT28Q7E9G7G4MYSZN,13,0,8,1.0,0,0,13,0,8,1.0,asocial
01JVXC51SFT28Q7E9G7G4MYSZN,13,1,8,1.0,0,0,14,2,8,1.0,asocial
01JVXC51SFT28Q7E9G7G4MYSZN,13,2,8,1.0,0,0,15,0,8,1.0,asocial
01JVXC51SFT28Q7E9G7G4MYSZN,13,3,8,1.0,0,0,10,3,8,1.0,asocial
01JVXC51SFT28Q7E9G7G4MYSZN,13,4,8,1.0,0,0,12,0,8,1.0,asocial
01JVXC51SFT28Q7E9G7G4MYSZN,13,5,8,1.0,0,0,9,1,8,1.0,asocial
01JVXC51SFT28Q7E9G7G4MYSZN,13,6,8,1.0,0,0,11,2,8,1.0,asocial
01JVXC51SFT28Q7E9G7G4MYSZN,13,7,8,1.0,0,0,2,0,8,1.0,asocial
01JVXC51SFT28Q7E9G7G4MYSZN,13,8,8,1.0,12,0,12,0,8,1.0,asocial
01JVXC51SFT28Q7E9G7G4MYSZN,13,9,8,1.0,0,0,12,2,8,1.0,asocial
01JVXC51SFT28Q7E9G7G4MYSZN,14,0,8,1.0,0,0,14,0,8,1.0,asocial
01JVXC51SFT28Q7E9G7G4MYSZN,14,1,8,1.0,0,0,15,2,8,1.0,asocial
01JVXC51SFT28Q7E9G7G4MYSZN,14,2,8,1.0,0,0,16,1,8,1.0,asocial
01JVXC51SFT28Q7E9G7G4MYSZN,14,3,8,1.0,0,0,11,3,8,1.0,asocial
01JVXC51SFT28Q7E9G7G4MYSZN,14,4,8,1.0,0,0,13,0,8,1.0,asocial
01JVXC51SFT28Q7E9G7G4MYSZN,14,5,8,1.0,0,0,10,1,8,1.0,asocial
01JVXC51SFT28Q7E9G7G4MYSZN,14,6,8,1.0,0,0,12,2,8,1.0,asocial
01JVXC51SFT28Q7E9G7G4MYSZN,14,7,8,1.0,0,0,2,0,8,1.0,asocial
01JVXC51SFT28Q7E9G7G4MYSZN,14,8,8,1.0,13,0,13,0,8,1.0,asocial
01JVXC51SFT28Q7E9G7G4MYSZN,14,9,8,1.0,0,0,13,2,8,1.0,asocial
01JVXC51SFT28Q7E9G7G4MYSZN,15,0,8,1.0,0,0,15,0,8,1.0,asocial
01JVXC51SFT28Q7E9G7G4MYSZN,15,1,8,1.0,0,0,16,2,8,1.0,asocial
01JVXC51SFT28Q7E9G7G4MYSZN,15,2,8,1.0,0,0,17,1,8,1.0,asocial
01JVXC51SFT28Q7E9G7G4MYSZN,15,3,8,1.0,0,0,12,3,8,1.0,asocial
01JVXC51SFT28Q7E9G7G4MYSZN,15,4,8,1.0,0,0,14,0,8,1.0,asocial
01JVXC51SFT28Q7E9G7G4MYSZN,15,5,8,1.0,0,0,11,1,8,1.0,asocial
01JVXC51SFT28Q7E9G7G4MYSZN,15,6,8,1.0,0,0,13,2,8,1.0,asocial
01JVXC51SFT28Q7E9G7G4MYSZN,15,7,8,1.0,0,0,2,0,8,1.0,asocial
01JVXC51SFT28Q7E9G7G4MYSZN,15,8,8,1.0,14,0,15,0,8,1.0,asocial
01JVXC51SFT28Q7E9G7G4MYSZN,15,9,8,1.0,0,0,14,2,8,1.0,asocial
01JVXC51SFT28Q7E9G7G4MYSZN,16,0,8,1.0,0,0,16,0,8,1.0,asocial
01JVXC51SFT28Q7E9G7G4MYSZN,16,1,8,1.0,0,0,17,2,8,1.0,asocial
01JVXC51SFT28Q7E9G7G4MYSZN,16,2,8,1.0,0,0,18,1,8,1.0,asocial
01JVXC51SFT28Q7E9G7G4MYSZN,16,3,8,1.0,0,0,13,3,8,1.0,asocial
01JVXC51SFT28Q7E9G7G4MYSZN,16,4,8,1.0,0,0,15,0,8,1.0,asocial
01JVXC51SFT28Q7E9G7G4MYSZN,16,5,8,1.0,0,0,12,1,8,1.0,asocial
01JVXC51SFT28Q7E9G7G4MYSZN,16,6,8,1.0,0,0,14,2,8,1.0,asocial
01JVXC51SFT28Q7E9G7G4MYSZN,16,7,8,1.0,0,0,2,0,8,1.0,asocial
01JVXC51SFT28Q7E9G7G4MYSZN,16,8,8,1.0,15,0,16,0,8,1.0,asocial
01JVXC51SFT28Q7E9G7G4MYSZN,16,9,8,1.0,0,0,16,2,8,1.0,asocial
01JVXC51SFT28Q7E9G7G4MYSZN,17,0,8,1.0,0,0,18,0,8,1.0,asocial
01JVXC51SFT28Q7E9G7G4MYSZN,17,1,8,1.0,0,0,18,2,8,1.0,asocial
01JVXC51SFT28Q7E9G7G4MYSZN,17,2,8,1.0,0,0,19,1,8,1.0,asocial
01JVXC51SFT28Q7E9G7G4MYSZN,17,3,8,1.0,0,0,14,3,8,1.0,asocial
01JVXC51SFT28Q7E9G7G4MYSZN,17,4,8,1.0,0,0,16,0,8,1.0,asocial
01JVXC51SFT28Q7E9G7G4MYSZN,17,5,8,1.0,0,0,13,1,8,1.0,asocial
01JVXC51SFT28Q7E9G7G4MYSZN,17,6,8,1.0,0,0,15,2,8,1.0,asocial
01JVXC51SFT28Q7E9G7G4MYSZN,17,7,8,1.0,0,0,2,0,8,1.0,asocial
01JVXC51SFT28Q7E9G7G4MYSZN,17,8,8,1.0,16,0,17,0,8,1.0,asocial
01JVXC51SFT28Q7E9G7G4MYSZN,17,9,8,1.0,0,0,17,2,8,1.0,asocial
01JVXC51SFT28Q7E9G7G4MYSZN,18,0,8,1.0,0,0,19,0,8,1.0,asocial
01JVXC51SFT28Q7E9G7G4MYSZN,18,1,8,1.0,0,0,18,3,8,1.0,asocial
01JVXC51SFT28Q7E9G7G4MYSZN,18,2,8,1.0,0,0,20,1,8,1.0,asocial
01JVXC51SFT28Q7E9G7G4MYSZN,18,3,8,1.0,0,0,15,3,8,1.0,asocial
01JVXC51SFT28Q7E9G7G4MYSZN,18,4,8,1.0,0,0,18,0,8,1.0,asocial
01JVXC51SFT28Q7E9G7G4MYSZN,18,5,8,1.0,0,0,14,1,8,1.0,asocial
01JVXC51SFT28Q7E9G7G4MYSZN,18,6,8,1.0,0,0,15,3,8,1.0,asocial
01JVXC51SFT28Q7E9G7G4MYSZN,18,7,8,1.0,0,0,2,0,8,1.0,asocial
01JVXC51SFT28Q7E9G7G4MYSZN,18,8,8,1.0,17,0,18,0,8,1.0,asocial
01JVXC51SFT28Q7E9G7G4MYSZN,18,9,8,1.0,0,0,18,2,8,1.0,asocial
01JVXC51SFT28Q7E9G7G4MYSZN,19,0,8,1.0,0,0,20,0,8,1.0,asocial
01JVXC51SFT28Q7E9G7G4MYSZN,19,1,8,1.0,0,0,19,3,8,1.0,asocial
01JVXC51SFT28Q7E9G7G4MYSZN,19,2,8,1.0,0,0,20,2,8,1.0,asocial
01JVXC51SFT28Q7E9G7G4MYSZN,19,3,8,1.0,0,0,16,3,8,1.0,asocial
01JVXC51SFT28Q7E9G7G4MYSZN,19,4,8,1.0,0,0,19,0,8,1.0,asocial
01JVXC51SFT28Q7E9G7G4MYSZN,19,5,8,1.0,0,0,15,1,8,1.0,asocial
01JVXC51SFT28Q7E9G7G4MYSZN,19,6,8,1.0,0,0,17,3,8,1.0,asocial
01JVXC51SFT28Q7E9G7G4MYSZN,19,7,8,1.0,0,0,2,0,8,1.0,asocial
01JVXC51SFT28Q7E9G7G4MYSZN,19,8,8,1.0,18,0,19,0,8,1.0,asocial
01JVXC51SFT28Q7E9G7G4MYSZN,19,9,8,1.0,0,0,19,2,8,1.0,asocial
01JVXC51SFT28Q7E9G7G4MYSZN,20,0,8,0.0,0,0,21,0,8,1.0,asocial
01JVXC51SFT28Q7E9G7G4MYSZN,20,1,8,0.0,0,0,20,3,8,1.0,asocial
01JVXC51SFT28Q7E9G7G4MYSZN,20,2,8,0.0,0,0,21,2,8,1.0,asocial
01JVXC51SFT28Q7E9G7G4MYSZN,20,3,8,0.0,0,0,17,3,8,1.0,asocial
01JVXC51SFT28Q7E9G7G4MYSZN,20,4,8,0.0,0,0,20,0,8,1.0,asocial
01JVXC51SFT28Q7E9G7G4MYSZN,20,5,8,0.0,0,0,17,1,8,1.0,asocial
01JVXC51SFT28Q7E9G7G4MYSZN,20,6,8,0.0,0,0,18,3,8,1.0,asocial
01JVXC51SFT28Q7E9G7G4MYSZN,20,7,8,0.0,0,0,2,0,8,1.0,asocial
01JVXC51SFT28Q7E9G7G4MYSZN,20,8,8,0.0,19,0,20,0,8,1.0,asocial
01JVXC51SFT28Q7E9G7G4MYSZN,20,9,8,0.0,0,0,20,2,8,1.0,asocial
01JVXC51SFT28Q7E9G7G4MYSZN,21,0,8,1.0,0,0,21,1,8,0.0,asocial
01JVXC51SFT28Q7E9G7G4MYSZN,21,1,8,1.0,0,0,21,3,8,0.0,asocial
01JVXC51SFT28Q7E9G7G4MYSZN,21,2,8,1.0,0,0,22,2,8,0.0,asocial
01JVXC51SFT28Q7E9G7G4MYSZN,21,3,8,1.0,0,0,19,3,8,0.0,asocial
01JVXC51SFT28Q7E9G7G4MYSZN,21,4,8,1.0,0,0,21,0,8,0.0,asocial
01JVXC51SFT28Q7E9G7G4MYSZN,21,5,8,1.0,0,0,18,1,8,0.0,asocial
01JVXC51SFT28Q7E9G7G4MYSZN,21,6,8,1.0,0,0,19,3,8,0.0,asocial
01JVXC51SFT28Q7E9G7G4MYSZN,21,7,8,1.0,0,0,2,0,8,0.0,asocial
01JVXC51SFT28Q7E9G7G4MYSZN,21,8,8,1.0,19,1,20,1,8,0.0,asocial
01JVXC51SFT28Q7E9G7G4MYSZN,21,9,8,1.0,0,0,21,2,8,0.0,asocial
01JVXC51SFT28Q7E9G7G4MYSZN,22,0,8,1.0,0,0,22,1,8,1.0,asocial
01JVXC51SFT28Q7E9G7G4MYSZN,22,1,8,1.0,0,0,22,3,8,1.0,asocial
01JVXC51SFT28Q7E9G7G4MYSZN,22,2,8,1.0,0,0,23,2,8,1.0,asocial
01JVXC51SFT28Q7E9G7G4MYSZN,22,3,8,1.0,0,0,20,3,8,1.0,asocial
01JVXC51SFT28Q7E9G7G4MYSZN,22,4,8,1.0,0,0,22,0,8,1.0,asocial
01JVXC51SFT28Q7E9G7G4MYSZN,22,5,8,1.0,0,0,19,1,8,1.0,asocial
01JVXC51SFT28Q7E9G7G4MYSZN,22,6,8,1.0,0,0,20,3,8,1.0,asocial
01JVXC51SFT28Q7E9G7G4MYSZN,22,7,8,1.0,0,0,2,0,8,1.0,asocial
01JVXC51SFT28Q7E9G7G4MYSZN,22,8,8,1.0,20,1,22,1,8,1.0,asocial
01JVXC51SFT28Q7E9G7G4MYSZN,22,9,8,1.0,0,0,22,2,8,1.0,asocial
01JVXC51SFT28Q7E9G7G4MYSZN,23,0,8,1.0,0,0,22,2,8,1.0,asocial
01JVXC51SFT28Q7E9G7G4MYSZN,23,1,8,1.0,0,0,23,3,8,1.0,asocial
01JVXC51SFT28Q7E9G7G4MYSZN,23,2,8,1.0,0,0,24,2,8,1.0,asocial
01JVXC51SFT28Q7E9G7G4MYSZN,23,3,8,1.0,0,0,20,4,8,1.0,asocial
01JVXC51SFT28Q7E9G7G4MYSZN,23,4,8,1.0,0,0,23,0,8,1.0,asocial
01JVXC51SFT28Q7E9G7G4MYSZN,23,5,8,1.0,0,0,20,1,8,1.0,asocial
01JVXC51SFT28Q7E9G7G4MYSZN,23,6,8,1.0,0,0,21,3,8,1.0,asocial
01JVXC51SFT28Q7E9G7G4MYSZN,23,7,8,1.0,0,0,2,0,8,1.0,asocial
01JVXC51SFT28Q7E9G7G4MYSZN,23,8,8,1.0,21,1,23,1,8,1.0,asocial
01JVXC51SFT28Q7E9G7G4MYSZN,23,9,8,1.0,0,0,24,2,8,1.0,asocial
01JVXC51SFT28Q7E9G7G4MYSZN,24,0,8,1.0,0,0,23,2,8,1.0,asocial
01JVXC51SFT28Q7E9G7G4MYSZN,24,1,8,1.0,0,0,24,3,8,1.0,asocial
01JVXC51SFT28Q7E9G7G4MYSZN,24,2,8,1.0,0,0,25,2,8,1.0,asocial
01JVXC51SFT28Q7E9G7G4MYSZN,24,3,8,1.0,0,0,21,4,8,1.0,asocial
01JVXC51SFT28Q7E9G7G4MYSZN,24,4,8,1.0,0,0,24,0,8,1.0,asocial
01JVXC51SFT28Q7E9G7G4MYSZN,24,5,8,1.0,0,0,21,1,8,1.0,asocial
01JVXC51SFT28Q7E9G7G4MYSZN,24,6,8,1.0,0,0,22,3,8,1.0,asocial
01JVXC51SFT28Q7E9G7G4MYSZN,24,7,8,1.0,0,0,3,0,8,1.0,asocial
01JVXC51SFT28Q7E9G7G4MYSZN,24,8,8,1.0,22,1,24,1,8,1.0,asocial
01JVXC51SFT28Q7E9G7G4MYSZN,24,9,8,1.0,0,0,25,2,8,1.0,asocial
01JVXC51SFT28Q7E9G7G4MYSZN,25,0,8,0.0,0,0,23,3,8,1.0,asocial
01JVXC51SFT28Q7E9G7G4MYSZN,25,1,8,0.0,0,0,25,3,8,1.0,asocial
01JVXC51SFT28Q7E9G7G4MYSZN,25,2,8,0.0,0,0,26,2,8,1.0,asocial
01JVXC51SFT28Q7E9G7G4MYSZN,25,3,8,0.0,0,0,22,4,8,1.0,asocial
01JVXC51SFT28Q7E9G7G4MYSZN,25,4,8,0.0,0,0,25,0,8,1.0,asocial
01JVXC51SFT28Q7E9G7G4MYSZN,25,5,8,0.0,0,0,22,1,8,1.0,asocial
01JVXC51SFT28Q7E9G7G4MYSZN,25,6,8,0.0,0,0,23,3,8,1.0,asocial
01JVXC51SFT28Q7E9G7G4MYSZN,25,7,8,0.0,0,0,3,0,8,1.0,asocial
01JVXC51SFT28Q7E9G7G4MYSZN,25,8,8,0.0,23,1,25,1,8,1.0,asocial
01JVXC51SFT28Q7E9G7G4MYSZN,25,9,8,0.0,0,0,26,3,8,1.0,asocial
01JVXC51SFT28Q7E9G7G4MYSZN,26,0,8,1.0,0,0,23,4,8,0.0,asocial
01JVXC51SFT28Q7E9G7G4MYSZN,26,1,8,1.0,0,0,25,3,8,0.0,asocial
01JVXC51SFT28Q7E9G7G4MYSZN,26,2,8,1.0,0,0,27,2,8,0.0,asocial
01JVXC51SFT28Q7E9G7G4MYSZN,26,3,8,1.0,0,0,24,4,8,0.0,asocial
01JVXC51SFT28Q7E9G7G4MYSZN,26,4,8,1.0,0,0,26,0,8,0.0,asocial
01JVXC51SFT28Q7E9G7G4MYSZN,26,5,8,1.0,0,0,23,1,8,0.0,asocial
01JVXC51SFT28Q7E9G7G4MYSZN,26,6,8,1.0,0,0,24,3,8,0.0,asocial
01JVXC51SFT28Q7E9G7G4MYSZN,26,7,8,1.0,0,0,3,0,8,0.0,asocial
01JVXC51SFT28Q7E9G7G4MYSZN,26,8,8,1.0,23,2,25,3,8,0.0,asocial
01JVXC51SFT28Q7E9G7G4MYSZN,26,9,8,1.0,0,0,27,3,8,0.0,asocial
01JVXC51SFT28Q7E9G7G4MYSZN,27,0,8,1.0,0,0,24,4,8,1.0,asocial
01JVXC51SFT28Q7E9G7G4MYSZN,27,1,8,1.0,0,0,26,3,8,1.0,asocial
01JVXC51SFT28Q7E9G7G4MYSZN,27,2,8,1.0,0,0,28,2,8,1.0,asocial
01JVXC51SFT28Q7E9G7G4MYSZN,27,3,8,1.0,0,0,27,4,8,1.0,asocial
01JVXC51SFT28Q7E9G7G4MYSZN,27,4,8,1.0,0,0,26,0,8,1.0,asocial
01JVXC51SFT28Q7E9G7G4MYSZN,27,5,8,1.0,0,0,24,1,8,1.0,asocial
01JVXC51SFT28Q7E9G7G4MYSZN,27,6,8,1.0,0,0,25,3,8,1.0,asocial
01JVXC51SFT28Q7E9G7G4MYSZN,27,7,8,1.0,0,0,3,0,8,1.0,asocial
01JVXC51SFT28Q7E9G7G4MYSZN,27,8,8,1.0,24,2,26,3,8,1.0,asocial
01JVXC51SFT28Q7E9G7G4MYSZN,27,9,8,1.0,0,0,28,3,8,1.0,asocial
01JVXC51SFT28Q7E9G7G4MYSZN,28,0,8,1.0,0,0,24,5,8,1.0,asocial
01JVXC51SFT28Q7E9G7G4MYSZN,28,1,8,1.0,0,0,26,3,8,1.0,asocial
01JVXC51SFT28Q7E9G7G4MYSZN,28,2,8,1.0,0,0,29,2,8,1.0,asocial
01JVXC51SFT28Q7E9G7G4MYSZN,28,3,8,1.0,0,0,29,4,8,1.0,asocial
01JVXC51SFT28Q7E9G7G4MYSZN,28,4,8,1.0,0,0,26,0,8,1.0,asocial
01JVXC51SFT28Q7E9G7G4MYSZN,28,5,8,1.0,0,0,26,2,8,1.0,asocial
01JVXC51SFT28Q7E9G7G4MYSZN,28,6,8,1.0,0,0,26,3,8,1.0,asocial
01JVXC51SFT28Q7E9G7G4MYSZN,28,7,8,1.0,0,0,3,0,8,1.0,asocial
01JVXC51SFT28Q7E9G7G4MYSZN,28,8,8,1.0,25,2,27,3,8,1.0,asocial
01JVXC51SFT28Q7E9G7G4MYSZN,28,9,8,1.0,0,0,29,3,8,1.0,asocial
01JVXC51SFT28Q7E9G7G4MYSZN,29,0,8,1.0,0,0,25,5,8,1.0,asocial
01JVXC51SFT28Q7E9G7G4MYSZN,29,1,8,1.0,0,0,26,3,8,1.0,asocial
01JVXC51SFT28Q7E9G7G4MYSZN,29,2,8,1.0,0,0,30,3,8,1.0,asocial
01JVXC51SFT28Q7E9G7G4MYSZN,29,3,8,1.0,0,0,31,4,8,1.0,asocial
01JVXC51SFT28Q7E9G7G4MYSZN,29,4,8,1.0,0,0,27,0,8,1.0,asocial
01JVXC51SFT28Q7E9G7G4MYSZN,29,5,8,1.0,0,0,27,2,8,1.0,asocial
01JVXC51SFT28Q7E9G7G4MYSZN,29,6,8,1.0,0,0,26,4,8,1.0,asocial
01JVXC51SFT28Q7E9G7G4MYSZN,29,7,8,1.0,0,0,3,0,8,1.0,asocial
01JVXC51SFT28Q7E9G7G4MYSZN,29,8,8,1.0,26,2,28,3,8,1.0,asocial
01JVXC51SFT28Q7E9G7G4MYSZN,29,9,8,1.0,0,0,30,3,8,1.0,asocial
01JVXC51SFT28Q7E9G7G4MYSZN,30,0,8,1.0,0,0,26,5,8,1.0,asocial
01JVXC51SFT28Q7E9G7G4MYSZN,30,1,8,1.0,0,0,26,3,8,1.0,asocial
01JVXC51SFT28Q7E9G7G4MYSZN,30,2,8,1.0,0,0,31,3,8,1.0,asocial
01JVXC51SFT28Q7E9G7G4MYSZN,30,3,8,1.0,0,0,33,4,8,1.0,asocial
01JVXC51SFT28Q7E9G7G4MYSZN,30,4,8,1.0,0,0,28,0,8,1.0,asocial
01JVXC51SFT28Q7E9G7G4MYSZN,30,5,8,1.0,0,0,28,2,8,1.0,asocial
01JVXC51SFT28Q7E9G7G4MYSZN,30,6,8,1.0,0,0,28,4,8,1.0,asocial
01JVXC51SFT28Q7E9G7G4MYSZN,30,7,8,1.0,0,0,3,0,8,1.0,asocial
01JVXC51SFT28Q7E9G7G4MYSZN,30,8,8,1.0,27,2,29,3,8,1.0,asocial
01JVXC51SFT28Q7E9G7G4MYSZN,30,9,8,1.0,0,0,30,4,8,1.0,asocial
01JVXC51SFT28Q7E9G7G4MYSZN,31,0,8,1.0,0,0,26,6,8,1.0,asocial
01JVXC51SFT28Q7E9G7G4MYSZN,31,1,8,1.0,0,0,26,3,8,1.0,asocial
01JVXC51SFT28Q7E9G7G4MYSZN,31,2,8,1.0,0,0,32,3,8,1.0,asocial
01JVXC51SFT28Q7E9G7G4MYSZN,31,3,8,1.0,0,0,35,4,8,1.0,asocial
01JVXC51SFT28Q7E9G7G4MYSZN,31,4,8,1.0,0,0,30,0,8,1.0,asocial
01JVXC51SFT28Q7E9G7G4MYSZN,31,5,8,1.0,0,0,29,2,8,1.0,asocial
01JVXC51SFT28Q7E9G7G4MYSZN,31,6,8,1.0,0,0,29,4,8,1.0,asocial
01JVXC51SFT28Q7E9G7G4MYSZN,31,7,8,1.0,0,0,3,0,8,1.0,asocial
01JVXC51SFT28Q7E9G7G4MYSZN,31,8,8,1.0,28,2,30,3,8,1.0,asocial
01JVXC51SFT28Q7E9G7G4MYSZN,31,9,8,1.0,0,0,31,4,8,1.0,asocial
01JVXC51SFT28Q7E9G7G4MYSZN,32,0,8,0.0,0,0,28,6,8,1.0,asocial
01JVXC51SFT28Q7E9G7G4MYSZN,32,1,8,0.0,0,0,26,3,8,1.0,asocial
01JVXC51SFT28Q7E9G7G4MYSZN,32,2,8,0.0,0,0,33,3,8,1.0,asocial
01JVXC51SFT28Q7E9G7G4MYSZN,32,3,8,0.0,0,0,37,4,8,1.0,asocial
01JVXC51SFT28Q7E9G7G4MYSZN,32,4,8,0.0,0,0,30,1,8,1.0,asocial
01JVXC51SFT28Q7E9G7G4MYSZN,32,5,8,0.0,0,0,30,2,8,1.0,asocial
01JVXC51SFT28Q7E9G7G4MYSZN,32,6,8,0.0,0,0,30,4,8,1.0,asocial
01JVXC51SFT28Q7E9G7G4MYSZN,32,7,8,0.0,0,0,3,0,8,1.0,asocial
01JVXC51SFT28Q7E9G7G4MYSZN,32,8,8,0.0,29,2,31,3,8,1.0,asocial
01JVXC51SFT28Q7E9G7G4MYSZN,32,9,8,0.0,0,0,32,4,8,1.0,asocial
01JVXC51SFT28Q7E9G7G4MYSZN,33,0,8,1.0,0,0,29,6,8,0.0,asocial
01JVXC51SFT28Q7E9G7G4MYSZN,33,1,8,1.0,0,0,27,3,8,0.0,asocial
01JVXC51SFT28Q7E9G7G4MYSZN,33,2,8,1.0,0,0,33,4,8,0.0,asocial
01JVXC51SFT28Q7E9G7G4MYSZN,33,3,8,1.0,0,0,38,5,8,0.0,asocial
01JVXC51SFT28Q7E9G7G4MYSZN,33,4,8,1.0,0,0,31,1,8,0.0,asocial
01JVXC51SFT28Q7E9G7G4MYSZN,33,5,8,1.0,0,0,31,2,8,0.0,asocial
01JVXC51SFT28Q7E9G7G4MYSZN,33,6,8,1.0,0,0,31,4,8,0.0,asocial
01JVXC51SFT28Q7E9G7G4MYSZN,33,7,8,1.0,0,0,3,0,8,0.0,asocial
01JVXC51SFT28Q7E9G7G4MYSZN,33,8,8,1.0,29,3,31,4,8,0.0,asocial
01JVXC51SFT28Q7E9G7G4MYSZN,33,9,8,1.0,0,0,33,4,8,0.0,asocial
01JVXC51SFT28Q7E9G7G4MYSZN,34,0,8,1.0,0,0,30,6,8,1.0,asocial
01JVXC51SFT28Q7E9G7G4MYSZN,34,1,8,1.0,0,0,27,3,8,1.0,asocial
01JVXC51SFT28Q7E9G7G4MYSZN,34,2,8,1.0,0,0,34,4,8,1.0,asocial
01JVXC51SFT28Q7E9G7G4MYSZN,34,3,8,1.0,0,0,40,5,8,1.0,asocial
01JVXC51SFT28Q7E9G7G4MYSZN,34,4,8,1.0,0,0,32,1,8,1.0,asocial
01JVXC51SFT28Q7E9G7G4MYSZN,34,5,8,1.0,0,0,32,2,8,1.0,asocial
01JVXC51SFT28Q7E9G7G4MYSZN,34,6,8,1.0,0,0,32,4,8,1.0,asocial
01JVXC51SFT28Q7E9G7G4MYSZN,34,7,8,1.0,0,0,4,0,8,1.0,asocial
01JVXC51SFT28Q7E9G7G4MYSZN,34,8,8,1.0,30,3,32,4,8,1.0,asocial
01JVXC51SFT28Q7E9G7G4MYSZN,34,9,8,1.0,0,0,34,4,8,1.0,asocial
01JVXC51SFT28Q7E9G7G4MYSZN,35,0,8,0.0,0,0,31,6,8,1.0,asocial
01JVXC51SFT28Q7E9G7G4MYSZN,35,1,8,0.0,0,0,28,3,8,1.0,asocial
01JVXC51SFT28Q7E9G7G4MYSZN,35,2,8,0.0,0,0,35,4,8,1.0,asocial
01JVXC51SFT28Q7E9G7G4MYSZN,35,3,8,0.0,0,0,42,5,8,1.0,asocial
01JVXC51SFT28Q7E9G7G4MYSZN,35,4,8,0.0,0,0,32,2,8,1.0,asocial
01JVXC51SFT28Q7E9G7G4MYSZN,35,5,8,0.0,0,0,33,2,8,1.0,asocial
01JVXC51SFT28Q7E9G7G4MYSZN,35,6,8,0.0,0,0,33,4,8,1.0,asocial
01JVXC51SFT28Q7E9G7G4MYSZN,35,7,8,0.0,0,0,4,0,8,1.0,asocial
01JVXC51SFT28Q7E9G7G4MYSZN,35,8,8,0.0,31,3,33,4,8,1.0,asocial
01JVXC51SFT28Q7E9G7G4MYSZN,35,9,8,0.0,0,0,35,4,8,1.0,asocial
01JVXC51SFT28Q7E9G7G4MYSZN,36,0,8,1.0,0,0,33,6,8,0.0,asocial
01JVXC51SFT28Q7E9G7G4MYSZN,36,1,8,1.0,0,0,28,3,8,0.0,asocial
01JVXC51SFT28Q7E9G7G4MYSZN,36,2,8,1.0,0,0,36,4,8,0.0,asocial
01JVXC51SFT28Q7E9G7G4MYSZN,36,3,8,1.0,0,0,43,6,8,0.0,asocial
01JVXC51SFT28Q7E9G7G4MYSZN,36,4,8,1.0,0,0,33,2,8,0.0,asocial
01JVXC51SFT28Q7E9G7G4MYSZN,36,5,8,1.0,0,0,34,2,8,0.0,asocial
01JVXC51SFT28Q7E9G7G4MYSZN,36,6,8,1.0,0,0,34,4,8,0.0,asocial
01JVXC51SFT28Q7E9G7G4MYSZN,36,7,8,1.0,0,0,4,0,8,0.0,asocial
01JVXC51SFT28Q7E9G7G4MYSZN,36,8,8,1.0,31,4,33,5,8,0.0,asocial
01JVXC51SFT28Q7E9G7G4MYSZN,36,9,8,1.0,0,0,36,4,8,0.0,asocial
01JVXC51SFT28Q7E9G7G4MYSZN,37,0,8,0.0,0,0,34,6,8,1.0,asocial
01JVXC51SFT28Q7E9G7G4MYSZN,37,1,8,0.0,0,0,28,3,8,1.0,asocial
01JVXC51SFT28Q7E9G7G4MYSZN,37,2,8,0.0,0,0,37,4,8,1.0,asocial
01JVXC51SFT28Q7E9G7G4MYSZN,37,3,8,0.0,0,0,45,6,8,1.0,asocial
01JVXC51SFT28Q7E9G7G4MYSZN,37,4,8,0.0,0,0,33,3,8,1.0,asocial
01JVXC51SFT28Q7E9G7G4MYSZN,37,5,8,0.0,0,0,35,2,8,1.0,asocial
01JVXC51SFT28Q7E9G7G4MYSZN,37,6,8,0.0,0,0,35,4,8,1.0,asocial
01JVXC51SFT28Q7E9G7G4MYSZN,37,7,8,0.0,0,0,4,0,8,1.0,asocial
01JVXC51SFT28Q7E9G7G4MYSZN,37,8,8,0.0,32,4,34,5,8,1.0,asocial
01JVXC51SFT28Q7E9G7G4MYSZN,37,9,8,0.0,0,0,37,5,8,1.0,asocial
01JVXC51SFT28Q7E9G7G4MYSZN,38,0,8,1.0,0,0,34,7,8,0.0,asocial
01JVXC51SFT28Q7E9G7G4MYSZN,38,1,8,1.0,0,0,28,3,8,0.0,asocial
01JVXC51SFT28Q7E9G7G4MYSZN,38,2,8,1.0,0,0,39,4,8,0.0,asocial
01JVXC51SFT28Q7E9G7G4MYSZN,38,3,8,1.0,0,0,46,6,8,0.0,asocial
01JVXC51SFT28Q7E9G7G4MYSZN,38,4,8,1.0,0,0,34,3,8,0.0,asocial
01JVXC51SFT28Q7E9G7G4MYSZN,38,5,8,1.0,0,0,35,3,8,0.0,asocial
01JVXC51SFT28Q7E9G7G4MYSZN,38,6,8,1.0,0,0,36,4,8,0.0,asocial
01JVXC51SFT28Q7E9G7G4MYSZN,38,7,8,1.0,0,0,4,0,8,0.0,asocial
01JVXC51SFT28Q7E9G7G4MYSZN,38,8,8,1.0,32,5,34,6,8,0.0,asocial
01JVXC51SFT28Q7E9G7G4MYSZN,38,9,8,1.0,0,0,39,5,8,0.0,asocial
01JVXC51SFT28Q7E9G7G4MYSZN,39,0,8,1.0,0,0,35,7,8,1.0,asocial
01JVXC51SFT28Q7E9G7G4MYSZN,39,1,8,1.0,0,0,28,3,8,1.0,asocial
01JVXC51SFT28Q7E9G7G4MYSZN,39,2,8,1.0,0,0,40,4,8,1.0,asocial
01JVXC51SFT28Q7E9G7G4MYSZN,39,3,8,1.0,0,0,47,6,8,1.0,asocial
01JVXC51SFT28Q7E9G7G4MYSZN,39,4,8,1.0,0,0,34,3,8,1.0,asocial
01JVXC51SFT28Q7E9G7G4MYSZN,39,5,8,1.0,0,0,36,3,8,1.0,asocial
01JVXC51SFT28Q7E9G7G4MYSZN,39,6,8,1.0,0,0,39,4,8,1.0,asocial
01JVXC51SFT28Q7E9G7G4MYSZN,39,7,8,1.0,0,0,4,0,8,1.0,asocial
01JVXC51SFT28Q7E9G7G4MYSZN,39,8,8,1.0,33,5,35,6,8,1.0,asocial
01JVXC51SFT28Q7E9G7G4MYSZN,39,9,8,1.0,0,0,41,5,8,1.0,asocial
01JVXC51SFT28Q7E9G7G4MYSZN,40,0,8,1.0,0,0,36,7,8,1.0,asocial
01JVXC51SFT28Q7E9G7G4MYSZN,40,1,8,1.0,0,0,28,3,8,1.0,asocial
01JVXC51SFT28Q7E9G7G4MYSZN,40,2,8,1.0,0,0,41,4,8,1.0,asocial
01JVXC51SFT28Q7E9G7G4MYSZN,40,3,8,1.0,0,0,49,6,8,1.0,asocial
01JVXC51SFT28Q7E9G7G4MYSZN,40,4,8,1.0,0,0,35,3,8,1.0,asocial
01JVXC51SFT28Q7E9G7G4MYSZN,40,5,8,1.0,0,0,37,3,8,1.0,asocial
01JVXC51SFT28Q7E9G7G4MYSZN,40,6,8,1.0,0,0,40,4,8,1.0,asocial
01JVXC51SFT28Q7E9G7G4MYSZN,40,7,8,1.0,0,0,4,0,8,1.0,asocial
01JVXC51SFT28Q7E9G7G4MYSZN,40,8,8,1.0,34,5,36,6,8,1.0,asocial
01JVXC51SFT28Q7E9G7G4MYSZN,40,9,8,1.0,0,0,43,5,8,1.0,asocial
01JVXC51SFT28Q7E9G7G4MYSZN,41,0,8,1.0,0,0,38,7,8,1.0,asocial
01JVXC51SFT28Q7E9G7G4MYSZN,41,1,8,1.0,0,0,28,3,8,1.0,asocial
01JVXC51SFT28Q7E9G7G4MYSZN,41,2,8,1.0,0,0,42,4,8,1.0,asocial
01JVXC51SFT28Q7E9G7G4MYSZN,41,3,8,1.0,0,0,50,6,8,1.0,asocial
01JVXC51SFT28Q7E9G7G4MYSZN,41,4,8,1.0,0,0,35,3,8,1.0,asocial
01JVXC51SFT28Q7E9G7G4MYSZN,41,5,8,1.0,0,0,38,4,8,1.0,asocial
01JVXC51SFT28Q7E9G7G4MYSZN,41,6,8,1.0,0,0,41,4,8,1.0,asocial
01JVXC51SFT28Q7E9G7G4MYSZN,41,7,8,1.0,0,0,4,0,8,1.0,asocial
01JVXC51SFT28Q7E9G7G4MYSZN,41,8,8,1.0,35,5,37,6,8,1.0,asocial
01JVXC51SFT28Q7E9G7G4MYSZN,41,9,8,1.0,0,0,45,5,8,1.0,asocial
01JVXC51SFT28Q7E9G7G4MYSZN,42,0,8,1.0,0,0,39,7,8,1.0,asocial
01JVXC51SFT28Q7E9G7G4MYSZN,42,1,8,1.0,0,0,28,3,8,1.0,asocial
01JVXC51SFT28Q7E9G7G4MYSZN,42,2,8,1.0,0,0,43,4,8,1.0,asocial
01JVXC51SFT28Q7E9G7G4MYSZN,42,3,8,1.0,0,0,52,6,8,1.0,asocial
01JVXC51SFT28Q7E9G7G4MYSZN,42,4,8,1.0,0,0,35,3,8,1.0,asocial
01JVXC51SFT28Q7E9G7G4MYSZN,42,5,8,1.0,0,0,40,4,8,1.0,asocial
01JVXC51SFT28Q7E9G7G4MYSZN,42,6,8,1.0,0,0,42,4,8,1.0,asocial
01JVXC51SFT28Q7E9G7G4MYSZN,42,7,8,1.0,0,0,4,0,8,1.0,asocial
01JVXC51SFT28Q7E9G7G4MYSZN,42,8,8,1.0,36,5,38,6,8,1.0,asocial
01JVXC51SFT28Q7E9G7G4MYSZN,42,9,8,1.0,0,0,47,5,8,1.0,asocial
01JVXC51SFT28Q7E9G7G4MYSZN,43,0,8,1.0,0,0,40,7,8,1.0,asocial
01JVXC51SFT28Q7E9G7G4MYSZN,43,1,8,1.0,0,0,29,3,8,1.0,asocial
01JVXC51SFT28Q7E9G7G4MYSZN,43,2,8,1.0,0,0,44,4,8,1.0,asocial
01JVXC51SFT28Q7E9G7G4MYSZN,43,3,8,1.0,0,0,53,6,8,1.0,asocial
01JVXC51SFT28Q7E9G7G4MYSZN,43,4,8,1.0,0,0,35,3,8,1.0,asocial
01JVXC51SFT28Q7E9G7G4MYSZN,43,5,8,1.0,0,0,41,4,8,1.0,asocial
01JVXC51SFT28Q7E9G7G4MYSZN,43,6,8,1.0,0,0,43,4,8,1.0,asocial
01JVXC51SFT28Q7E9G7G4MYSZN,43,7,8,1.0,0,0,5,0,8,1.0,asocial
01JVXC51SFT28Q7E9G7G4MYSZN,43,8,8,1.0,37,5,40,6,8,1.0,asocial
01JVXC51SFT28Q7E9G7G4MYSZN,43,9,8,1.0,0,0,48,5,8,1.0,asocial
01JVXC51SFT28Q7E9G7G4MYSZN,44,0,8,1.0,0,0,41,7,8,1.0,asocial
01JVXC51SFT28Q7E9G7G4MYSZN,44,1,8,1.0,0,0,31,3,8,1.0,asocial
01JVXC51SFT28Q7E9G7G4MYSZN,44,2,8,1.0,0,0,45,4,8,1.0,asocial
01JVXC51SFT28Q7E9G7G4MYSZN,44,3,8,1.0,0,0,53,7,8,1.0,asocial
01JVXC51SFT28Q7E9G7G4MYSZN,44,4,8,1.0,0,0,35,3,8,1.0,asocial
01JVXC51SFT28Q7E9G7G4MYSZN,44,5,8,1.0,0,0,42,4,8,1.0,asocial
01JVXC51SFT28Q7E9G7G4MYSZN,44,6,8,1.0,0,0,43,5,8,1.0,asocial
01JVXC51SFT28Q7E9G7G4MYSZN,44,7,8,1.0,0,0,5,0,8,1.0,asocial
01JVXC51SFT28Q7E9G7G4MYSZN,44,8,8,1.0,38,5,41,6,8,1.0,asocial
01JVXC51SFT28Q7E9G7G4MYSZN,44,9,8,1.0,0,0,50,5,8,1.0,asocial
01JVXC51SFT28Q7E9G7G4MYSZN,45,0,8,1.0,0,0,43,7,8,1.0,asocial
01JVXC51SFT28Q7E9G7G4MYSZN,45,1,8,1.0,0,0,32,3,8,1.0,asocial
01JVXC51SFT28Q7E9G7G4MYSZN,45,2,8,1.0,0,0,45,5,8,1.0,asocial
01JVXC51SFT28Q7E9G7G4MYSZN,45,3,8,1.0,0,0,53,8,8,1.0,asocial
01JVXC51SFT28Q7E9G7G4MYSZN,45,4,8,1.0,0,0,35,3,8,1.0,asocial
01JVXC51SFT28Q7E9G7G4MYSZN,45,5,8,1.0,0,0,43,4,8,1.0,asocial
01JVXC51SFT28Q7E9G7G4MYSZN,45,6,8,1.0,0,0,44,5,8,1.0,asocial
01JVXC51SFT28Q7E9G7G4MYSZN,45,7,8,1.0,0,0,6,0,8,1.0,asocial
01JVXC51SFT28Q7E9G7G4MYSZN,45,8,8,1.0,39,5,42,6,8,1.0,asocial
01JVXC51SFT28Q7E9G7G4MYSZN,45,9,8,1.0,0,0,51,5,8,1.0,asocial
01JVXC51SFT28Q7E9G7G4MYSZN,46,0,8,1.0,0,0,44,7,8,1.0,asocial
01JVXC51SFT28Q7E9G7G4MYSZN,46,1,8,1.0,0,0,32,3,8,1.0,asocial
01JVXC51SFT28Q7E9G7G4MYSZN,46,2,8,1.0,0,0,46,6,8,1.0,asocial
01JVXC51SFT28Q7E9G7G4MYSZN,46,3,8,1.0,0,0,54,8,8,1.0,asocial
01JVXC51SFT28Q7E9G7G4MYSZN,46,4,8,1.0,0,0,36,3,8,1.0,asocial
01JVXC51SFT28Q7E9G7G4MYSZN,46,5,8,1.0,0,0,44,4,8,1.0,asocial
01JVXC51SFT28Q7E9G7G4MYSZN,46,6,8,1.0,0,0,45,5,8,1.0,asocial
01JVXC51SFT28Q7E9G7G4MYSZN,46,7,8,1.0,0,0,6,0,8,1.0,asocial
01JVXC51SFT28Q7E9G7G4MYSZN,46,8,8,1.0,40,5,43,6,8,1.0,asocial
01JVXC51SFT28Q7E9G7G4MYSZN,46,9,8,1.0,0,0,52,6,8,1.0,asocial
01JVXC51SFT28Q7E9G7G4MYSZN,47,0,8,1.0,0,0,45,7,8,1.0,asocial
01JVXC51SFT28Q7E9G7G4MYSZN,47,1,8,1.0,0,0,32,3,8,1.0,asocial
01JVXC51SFT28Q7E9G7G4MYSZN,47,2,8,1.0,0,0,46,7,8,1.0,asocial
01JVXC51SFT28Q7E9G7G4MYSZN,47,3,8,1.0,0,0,55,8,8,1.0,asocial
01JVXC51SFT28Q7E9G7G4MYSZN,47,4,8,1.0,0,0,37,3,8,1.0,asocial
01JVXC51SFT28Q7E9G7G4MYSZN,47,5,8,1.0,0,0,46,4,8,1.0,asocial
01JVXC51SFT28Q7E9G7G4MYSZN,47,6,8,1.0,0,0,47,5,8,1.0,asocial
01JVXC51SFT28Q7E9G7G4MYSZN,47,7,8,1.0,0,0,6,0,8,1.0,asocial
01JVXC51SFT28Q7E9G7G4MYSZN,47,8,8,1.0,41,5,44,6,8,1.0,asocial
01JVXC51SFT28Q7E9G7G4MYSZN,47,9,8,1.0,0,0,53,6,8,1.0,asocial
01JVXC51SFT28Q7E9G7G4MYSZN,48,0,8,1.0,0,0,46,7,8,1.0,asocial
01JVXC51SFT28Q7E9G7G4MYSZN,48,1,8,1.0,0,0,32,3,8,1.0,asocial
01JVXC51SFT28Q7E9G7G4MYSZN,48,2,8,1.0,0,0,47,7,8,1.0,asocial
01JVXC51SFT28Q7E9G7G4MYSZN,48,3,8,1.0,0,0,56,8,8,1.0,asocial
01JVXC51SFT28Q7E9G7G4MYSZN,48,4,8,1.0,0,0,37,3,8,1.0,asocial
01JVXC51SFT28Q7E9G7G4MYSZN,48,5,8,1.0,0,0,49,4,8,1.0,asocial
01JVXC51SFT28Q7E9G7G4MYSZN,48,6,8,1.0,0,0,48,5,8,1.0,asocial
01JVXC51SFT28Q7E9G7G4MYSZN,48,7,8,1.0,0,0,7,0,8,1.0,asocial
01JVXC51SFT28Q7E9G7G4MYSZN,48,8,8,1.0,42,5,45,6,8,1.0,asocial
01JVXC51SFT28Q7E9G7G4MYSZN,48,9,8,1.0,0,0,54,6,8,1.0,asocial
01JVXC51SFT28Q7E9G7G4MYSZN,49,0,8,1.0,0,0,47,7,8,1.0,asocial
01JVXC51SFT28Q7E9G7G4MYSZN,49,1,8,1.0,0,0,34,3,8,1.0,asocial
01JVXC51SFT28Q7E9G7G4MYSZN,49,2,8,1.0,0,0,48,7,8,1.0,asocial
01JVXC51SFT28Q7E9G7G4MYSZN,49,3,8,1.0,0,0,57,8,8,1.0,asocial
01JVXC51SFT28Q7E9G7G4MYSZN,49,4,8,1.0,0,0,37,3,8,1.0,asocial
01JVXC51SFT28Q7E9G7G4MYSZN,49,5,8,1.0,0,0,49,5,8,1.0,asocial
01JVXC51SFT28Q7E9G7G4MYSZN,49,6,8,1.0,0,0,49,5,8,1.0,asocial
01JVXC51SFT28Q7E9G7G4MYSZN,49,7,8,1.0,0,0,7,0,8,1.0,asocial
01JVXC51SFT28Q7E9G7G4MYSZN,49,8,8,1.0,43,5,46,6,8,1.0,asocial
01JVXC51SFT28Q7E9G7G4MYSZN,49,9,8,1.0,0,0,56,6,8,1.0,asocial
01JVXC51SFT28Q7E9G7G4MYSZN,50,0,8,1.0,0,0,49,7,8,1.0,asocial
01JVXC51SFT28Q7E9G7G4MYSZN,50,1,8,1.0,0,0,34,3,8,1.0,asocial
01JVXC51SFT28Q7E9G7G4MYSZN,50,2,8,1.0,0,0,49,7,8,1.0,asocial
01JVXC51SFT28Q7E9G7G4MYSZN,50,3,8,1.0,0,0,58,8,8,1.0,asocial
01JVXC51SFT28Q7E9G7G4MYSZN,50,4,8,1.0,0,0,37,3,8,1.0,asocial
01JVXC51SFT28Q7E9G7G4MYSZN,50,5,8,1.0,0,0,51,5,8,1.0,asocial
01JVXC51SFT28Q7E9G7G4MYSZN,50,6,8,1.0,0,0,49,6,8,1.0,asocial
01JVXC51SFT28Q7E9G7G4MYSZN,50,7,8,1.0,0,0,8,0,8,1.0,asocial
01JVXC51SFT28Q7E9G7G4MYSZN,50,8,8,1.0,44,5,47,6,8,1.0,asocial
01JVXC51SFT28Q7E9G7G4MYSZN,50,9,8,1.0,0,0,57,6,8,1.0,asocial
01JVXC51SFT28Q7E9G7G4MYSZN,51,0,8,1.0,0,0,49,8,8,1.0,asocial
01JVXC51SFT28Q7E9G7G4MYSZN,51,1,8,1.0,0,0,34,3,8,1.0,asocial
01JVXC51SFT28Q7E9G7G4MYSZN,51,2,8,1.0,0,0,51,7,8,1.0,asocial
01JVXC51SFT28Q7E9G7G4MYSZN,51,3,8,1.0,0,0,59,8,8,1.0,asocial
01JVXC51SFT28Q7E9G7G4MYSZN,51,4,8,1.0,0,0,38,3,8,1.0,asocial
01JVXC51SFT28Q7E9G7G4MYSZN,51,5,8,1.0,0,0,52,5,8,1.0,asocial
01JVXC51SFT28Q7E9G7G4MYSZN,51,6,8,1.0,0,0,50,6,8,1.0,asocial
01JVXC51SFT28Q7E9G7G4MYSZN,51,7,8,1.0,0,0,8,0,8,1.0,asocial
01JVXC51SFT28Q7E9G7G4MYSZN,51,8,8,1.0,45,5,49,6,8,1.0,asocial
01JVXC51SFT28Q7E9G7G4MYSZN,51,9,8,1.0,0,0,58,6,8,1.0,asocial
01JVXC6CCJ5ZVP3EPBMR0WG146,1,0,3,1.0,0,0,0,0,-1,,asocial
01JVXC6CCJ5ZVP3EPBMR0WG146,1,1,3,1.0,0,0,0,0,-1,,asocial
01JVXC6CCJ5ZVP3EPBMR0WG146,1,2,3,1.0,0,0,0,0,-1,,asocial
01JVXC6CCJ5ZVP3EPBMR0WG146,1,3,3,1.0,0,0,0,0,-1,,asocial
01JVXC6CCJ5ZVP3EPBMR0WG146,1,4,3,1.0,0,0,0,0,-1,,asocial
01JVXC6CCJ5ZVP3EPBMR0WG146,1,5,3,1.0,0,0,0,0,-1,,asocial
01JVXC6CCJ5ZVP3EPBMR0WG146,1,6,3,1.0,0,0,0,0,-1,,asocial
01JVXC6CCJ5ZVP3EPBMR0WG146,1,7,3,1.0,0,0,0,0,-1,,asocial
01JVXC6CCJ5ZVP3EPBMR0WG146,1,8,3,1.0,0,0,0,0,-1,,asocial
01JVXC6CCJ5ZVP3EPBMR0WG146,1,9,3,1.0,0,0,0,0,-1,,asocial
01JVXC6CCJ5ZVP3EPBMR0WG146,2,0,3,0.0,0,0,1,0,3,1.0,asocial
01JVXC6CCJ5ZVP3EPBMR0WG146,2,1,3,0.0,0,0,1,0,3,1.0,asocial
01JVXC6CCJ5ZVP3EPBMR0WG146,2,2,3,0.0,0,0,1,0,3,1.0,asocial
01JVXC6CCJ5ZVP3EPBMR0WG146,2,3,3,0.0,1,0,1,0,3,1.0,asocial
01JVXC6CCJ5ZVP3EPBMR0WG146,2,4,3,0.0,0,0,1,0,3,1.0,asocial
01JVXC6CCJ5ZVP3EPBMR0WG146,2,5,3,0.0,0,0,1,0,3,1.0,asocial
01JVXC6CCJ5ZVP3EPBMR0WG146,2,6,3,0.0,0,0,1,0,3,1.0,asocial
01JVXC6CCJ5ZVP3EPBMR0WG146,2,7,3,0.0,0,0,1,0,3,1.0,asocial
01JVXC6CCJ5ZVP3EPBMR0WG146,2,8,3,0.0,0,0,1,0,3,1.0,asocial
01JVXC6CCJ5ZVP3EPBMR0WG146,2,9,3,0.0,0,0,1,0,3,1.0,asocial
01JVXC6CCJ5ZVP3EPBMR0WG146,3,0,9,0.0,0,0,2,0,3,0.0,asocial
01JVXC6CCJ5ZVP3EPBMR0WG146,3,1,9,0.0,0,0,2,0,3,0.0,asocial
01JVXC6CCJ5ZVP3EPBMR0WG146,3,2,9,0.0,0,0,2,0,3,0.0,asocial
01JVXC6CCJ5ZVP3EPBMR0WG146,3,3,9,0.0,1,1,1,1,3,0.0,asocial
01JVXC6CCJ5ZVP3EPBMR0WG146,3,4,9,0.0,0,0,2,0,3,0.0,asocial
01JVXC6CCJ5ZVP3EPBMR0WG146,3,5,9,0.0,0,0,2,0,3,0.0,asocial
01JVXC6CCJ5ZVP3EPBMR0WG146,3,6,9,0.0,0,0,2,0,3,0.0,asocial
01JVXC6CCJ5ZVP3EPBMR0WG146,3,7,9,0.0,0,0,2,0,3,0.0,asocial
01JVXC6CCJ5ZVP3EPBMR0WG146,3,8,9,0.0,0,0,2,0,3,0.0,asocial
01JVXC6CCJ5ZVP3EPBMR0WG146,3,9,9,0.0,0,0,2,0,3,0.0,asocial
01JVXC6CCJ5ZVP3EPBMR0WG146,4,0,3,1.0,0,0,3,0,9,0.0,asocial
01JVXC6CCJ5ZVP3EPBMR0WG146,4,1,3,1.0,0,0,3,0,9,0.0,asocial
01JVXC6CCJ5ZVP3EPBMR0WG146,4,2,3,1.0,0,0,3,0,9,0.0,asocial
01JVXC6CCJ5ZVP3EPBMR0WG146,4,3,3,1.0,1,1,2,2,9,0.0,asocial
01JVXC6CCJ5ZVP3EPBMR0WG146,4,4,3,1.0,0,0,3,0,9,0.0,asocial
01JVXC6CCJ5ZVP3EPBMR0WG146,4,5,3,1.0,0,0,2,0,9,0.0,asocial
01JVXC6CCJ5ZVP3EPBMR0WG146,4,6,3,1.0,0,0,3,0,9,0.0,asocial
01JVXC6CCJ5ZVP3EPBMR0WG146,4,7,3,1.0,0,0,2,0,9,0.0,asocial
01JVXC6CCJ5ZVP3EPBMR0WG146,4,8,3,1.0,0,0,3,0,9,0.0,asocial
01JVXC6CCJ5ZVP3EPBMR0WG146,4,9,3,1.0,0,1,3,1,9,0.0,asocial
01JVXC6CCJ5ZVP3EPBMR0WG146,5,0,3,1.0,0,0,4,0,3,1.0,asocial
01JVXC6CCJ5ZVP3EPBMR0WG146,5,1,3,1.0,0,0,4,0,3,1.0,asocial
01JVXC6CCJ5ZVP3EPBMR0WG146,5,2,3,1.0,0,0,5,0,3,1.0,asocial
01JVXC6CCJ5ZVP3EPBMR0WG146,5,3,3,1.0,2,1,3,2,3,1.0,asocial
01JVXC6CCJ5ZVP3EPBMR0WG146,5,4,3,1.0,0,0,4,0,3,1.0,asocial
01JVXC6CCJ5ZVP3EPBMR0WG146,5,5,3,1.0,0,0,3,0,3,1.0,asocial
01JVXC6CCJ5ZVP3EPBMR0WG146,5,6,3,1.0,0,0,4,0,3,1.0,asocial
01JVXC6CCJ5ZVP3EPBMR0WG146,5,7,3,1.0,0,0,2,0,3,1.0,asocial
01JVXC6CCJ5ZVP3EPBMR0WG146,5,8,3,1.0,0,0,4,0,3,1.0,asocial
01JVXC6CCJ5ZVP3EPBMR0WG146,5,9,3,1.0,0,1,4,1,3,1.0,asocial
01JVXC6CCJ5ZVP3EPBMR0WG146,6,0,3,1.0,0,0,5,0,3,1.0,asocial
01JVXC6CCJ5ZVP3EPBMR0WG146,6,1,3,1.0,0,0,5,0,3,1.0,asocial
01JVXC6CCJ5ZVP3EPBMR0WG146,6,2,3,1.0,0,0,6,0,3,1.0,asocial
01JVXC6CCJ5ZVP3EPBMR0WG146,6,3,3,1.0,3,1,4,2,3,1.0,asocial
01JVXC6CCJ5ZVP3EPBMR0WG146,6,4,3,1.0,0,0,4,0,3,1.0,asocial
01JVXC6CCJ5ZVP3EPBMR0WG146,6,5,3,1.0,0,0,4,0,3,1.0,asocial
01JVXC6CCJ5ZVP3EPBMR0WG146,6,6,3,1.0,0,0,6,0,3,1.0,asocial
01JVXC6CCJ5ZVP3EPBMR0WG146,6,7,3,1.0,0,0,2,0,3,1.0,asocial
01JVXC6CCJ5ZVP3EPBMR0WG146,6,8,3,1.0,0,0,5,0,3,1.0,asocial
01JVXC6CCJ5ZVP3EPBMR0WG146,6,9,3,1.0,0,1,6,1,3,1.0,asocial
01JVXC6CCJ5ZVP3EPBMR0WG146,7,0,3,1.0,0,0,6,0,3,1.0,asocial
01JVXC6CCJ5ZVP3EPBMR0WG146,7,1,3,1.0,0,0,7,0,3,1.0,asocial
01JVXC6CCJ5ZVP3EPBMR0WG146,7,2,3,1.0,0,0,7,0,3,1.0,asocial
01JVXC6CCJ5ZVP3EPBMR0WG146,7,3,3,1.0,4,1,5,2,3,1.0,asocial
01JVXC6CCJ5ZVP3EPBMR0WG146,7,4,3,1.0,0,0,5,0,3,1.0,asocial
01JVXC6CCJ5ZVP3EPBMR0WG146,7,5,3,1.0,0,0,5,0,3,1.0,asocial
01JVXC6CCJ5ZVP3EPBMR0WG146,7,6,3,1.0,0,0,7,0,3,1.0,asocial
01JVXC6CCJ5ZVP3EPBMR0WG146,7,7,3,1.0,0,0,2,0,3,1.0,asocial
01JVXC6CCJ5ZVP3EPBMR0WG146,7,8,3,1.0,0,0,6,0,3,1.0,asocial
01JVXC6CCJ5ZVP3EPBMR0WG146,7,9,3,1.0,0,1,7,1,3,1.0,asocial
01JVXC6CCJ5ZVP3EPBMR0WG146,8,0,3,1.0,0,0,8,0,3,1.0,asocial
01JVXC6CCJ5ZVP3EPBMR0WG146,8,1,3,1.0,0,0,8,1,3,1.0,asocial
01JVXC6CCJ5ZVP3EPBMR0WG146,8,2,3,1.0,0,0,8,0,3,1.0,asocial
01JVXC6CCJ5ZVP3EPBMR0WG146,8,3,3,1.0,5,1,6,2,3,1.0,asocial
01JVXC6CCJ5ZVP3EPBMR0WG146,8,4,3,1.0,0,0,6,0,3,1.0,asocial
01JVXC6CCJ5ZVP3EPBMR0WG146,8,5,3,1.0,0,0,5,0,3,1.0,asocial
01JVXC6CCJ5ZVP3EPBMR0WG146,8,6,3,1.0,0,0,7,1,3,1.0,asocial
01JVXC6CCJ5ZVP3EPBMR0WG146,8,7,3,1.0,0,0,2,0,3,1.0,asocial
01JVXC6CCJ5ZVP3EPBMR0WG146,8,8,3,1.0,0,0,7,0,3,1.0,asocial
01JVXC6CCJ5ZVP3EPBMR0WG146,8,9,3,1.0,0,1,8,1,3,1.0,asocial
01JVXC6CCJ5ZVP3EPBMR0WG146,9,0,3,1.0,0,0,9,0,3,1.0,asocial
01JVXC6CCJ5ZVP3EPBMR0WG146,9,1,3,1.0,0,0,9,1,3,1.0,asocial
01JVXC6CCJ5ZVP3EPBMR0WG146,9,2,3,1.0,0,0,9,0,3,1.0,asocial
01JVXC6CCJ5ZVP3EPBMR0WG146,9,3,3,1.0,6,1,7,2,3,1.0,asocial
01JVXC6CCJ5ZVP3EPBMR0WG146,9,4,3,1.0,0,0,8,0,3,1.0,asocial
01JVXC6CCJ5ZVP3EPBMR0WG146,9,5,3,1.0,0,0,6,0,3,1.0,asocial
01JVXC6CCJ5ZVP3EPBMR0WG146,9,6,3,1.0,0,0,8,1,3,1.0,asocial
01JVXC6CCJ5ZVP3EPBMR0WG146,9,7,3,1.0,0,0,2,0,3,1.0,asocial
01JVXC6CCJ5ZVP3EPBMR0WG146,9,8,3,1.0,0,0,8,0,3,1.0,asocial
01JVXC6CCJ5ZVP3EPBMR0WG146,9,9,3,1.0,0,1,9,1,3,1.0,asocial
01JVXC6CCJ5ZVP3EPBMR0WG146,10,0,3,1.0,0,0,10,0,3,1.0,asocial
01JVXC6CCJ5ZVP3EPBMR0WG146,10,1,3,1.0,0,0,11,1,3,1.0,asocial
01JVXC6CCJ5ZVP3EPBMR0WG146,10,2,3,1.0,0,0,10,0,3,1.0,asocial
01JVXC6CCJ5ZVP3EPBMR0WG146,10,3,3,1.0,7,1,8,2,3,1.0,asocial
01JVXC6CCJ5ZVP3EPBMR0WG146,10,4,3,1.0,0,0,9,0,3,1.0,asocial
01JVXC6CCJ5ZVP3EPBMR0WG146,10,5,3,1.0,0,0,7,0,3,1.0,asocial
01JVXC6CCJ5ZVP3EPBMR0WG146,10,6,3,1.0,0,0,8,2,3,1.0,asocial
01JVXC6CCJ5ZVP3EPBMR0WG146,10,7,3,1.0,0,0,2,0,3,1.0,asocial
01JVXC6CCJ5ZVP3EPBMR0WG146,10,8,3,1.0,0,0,9,0,3,1.0,asocial
01JVXC6CCJ5ZVP3EPBMR0WG146,10,9,3,1.0,0,1,9,2,3,1.0,asocial
01JVXC6CCJ5ZVP3EPBMR0WG146,11,0,3,1.0,0,0,11,0,3,1.0,asocial
01JVXC6CCJ5ZVP3EPBMR0WG146,11,1,3,1.0,0,0,12,2,3,1.0,asocial
01JVXC6CCJ5ZVP3EPBMR0WG146,11,2,3,1.0,0,0,11,0,3,1.0,asocial
01JVXC6CCJ5ZVP3EPBMR0WG146,11,3,3,1.0,8,1,9,2,3,1.0,asocial
01JVXC6CCJ5ZVP3EPBMR0WG146,11,4,3,1.0,0,0,10,0,3,1.0,asocial
01JVXC6CCJ5ZVP3EPBMR0WG146,11,5,3,1.0,0,0,8,0,3,1.0,asocial
01JVXC6CCJ5ZVP3EPBMR0WG146,11,6,3,1.0,0,0,9,2,3,1.0,asocial
01JVXC6CCJ5ZVP3EPBMR0WG146,11,7,3,1.0,0,0,2,0,3,1.0,asocial
01JVXC6CCJ5ZVP3EPBMR0WG146,11,8,3,1.0,0,0,10,0,3,1.0,asocial
01JVXC6CCJ5ZVP3EPBMR0WG146,11,9,3,1.0,0,1,10,2,3,1.0,asocial
01JVXC6CCJ5ZVP3EPBMR0WG146,12,0,3,0.0,0,0,12,0,3,1.0,asocial
01JVXC6CCJ5ZVP3EPBMR0WG146,12,1,3,0.0,0,0,13,2,3,1.0,asocial
01JVXC6CCJ5ZVP3EPBMR0WG146,12,2,3,0.0,0,0,13,0,3,1.0,asocial
01JVXC6CCJ5ZVP3EPBMR0WG146,12,3,3,0.0,9,1,10,2,3,1.0,asocial
01JVXC6CCJ5ZVP3EPBMR0WG146,12,4,3,0.0,0,0,11,0,3,1.0,asocial
01JVXC6CCJ5ZVP3EPBMR0WG146,12,5,3,0.0,0,0,9,0,3,1.0,asocial
01JVXC6CCJ5ZVP3EPBMR0WG146,12,6,3,0.0,0,0,10,2,3,1.0,asocial
01JVXC6CCJ5ZVP3EPBMR0WG146,12,7,3,0.0,0,0,2,0,3,1.0,asocial
01JVXC6CCJ5ZVP3EPBMR0WG146,12,8,3,0.0,0,0,11,0,3,1.0,asocial
01JVXC6CCJ5ZVP3EPBMR0WG146,12,9,3,0.0,0,1,11,2,3,1.0,asocial
01JVXC6CCJ5ZVP3EPBMR0WG146,13,0,3,1.0,0,0,13,0,3,0.0,asocial
