participant_id,round,arm,choice,reward,own_success,own_failure,group_success,group_failure,prev_choice,prev_reward,condition
01JVTTB7B9EZ3NFX2YEKQXSF3J,1,0,7,1.0,0,0,0,0,-1,,asocial
01JVTTB7B9EZ3NFX2YEKQXSF3J,1,1,7,1.0,0,0,0,0,-1,,asocial
01JVTTB7B9EZ3NFX2YEKQXSF3J,1,2,7,1.0,0,0,0,0,-1,,asocial
01JVTTB7B9EZ3NFX2YEKQXSF3J,1,3,7,1.0,0,0,0,0,-1,,asocial
01JVTTB7B9EZ3NFX2YEKQXSF3J,1,4,7,1.0,0,0,0,0,-1,,asocial
01JVTTB7B9EZ3NFX2YEKQXSF3J,1,5,7,1.0,0,0,0,0,-1,,asocial
01JVTTB7B9EZ3NFX2YEKQXSF3J,1,6,7,1.0,0,0,0,0,-1,,asocial
01JVTTB7B9EZ3NFX2YEKQXSF3J,1,7,7,1.0,0,0,0,0,-1,,asocial
01JVTTB7B9EZ3NFX2YEKQXSF3J,1,8,7,1.0,0,0,0,0,-1,,asocial
01JVTTB7B9EZ3NFX2YEKQXSF3J,1,9,7,1.0,0,0,0,0,-1,,asocial
01JVTTB7B9EZ3NFX2YEKQXSF3J,2,0,7,1.0,0,0,1,0,7,1.0,asocial
01JVTTB7B9EZ3NFX2YEKQXSF3J,2,1,7,1.0,0,0,1,0,7,1.0,asocial
01JVTTB7B9EZ3NFX2YEKQXSF3J,2,2,7,1.0,0,0,1,0,7,1.0,asocial
01JVTTB7B9EZ3NFX2YEKQXSF3J,2,3,7,1.0,0,0,1,0,7,1.0,asocial
01JVTTB7B9EZ3NFX2YEKQXSF3J,2,4,7,1.0,0,0,1,0,7,1.0,asocial
01JVTTB7B9EZ3NFX2YEKQXSF3J,2,5,7,1.0,0,0,1,0,7,1.0,asocial
01JVTTB7B9EZ3NFX2YEKQXSF3J,2,6,7,1.0,0,0,1,0,7,1.0,asocial
01JVTTB7B9EZ3NFX2YEKQXSF3J,2,7,7,1.0,1,0,1,0,7,1.0,asocial
01JVTTB7B9EZ3NFX2YEKQXSF3J,2,8,7,1.0,0,0,1,0,7,1.0,asocial
01JVTTB7B9EZ3NFX2YEKQXSF3J,2,9,7,1.0,0,0,1,0,7,1.0,asocial
01JVTTB7B9EZ3NFX2YEKQXSF3J,3,0,3,1.0,0,0,2,0,7,1.0,asocial
01JVTTB7B9EZ3NFX2YEKQXSF3J,3,1,3,1.0,0,0,2,0,7,1.0,asocial
01JVTTB7B9EZ3NFX2YEKQXSF3J,3,2,3,1.0,0,0,1,0,7,1.0,asocial
01JVTTB7B9EZ3NFX2YEKQXSF3J,3,3,3,1.0,0,0,3,0,7,1.0,asocial
01JVTTB7B9EZ3NFX2YEKQXSF3J,3,4,3,1.0,0,0,1,0,7,1.0,asocial
01JVTTB7B9EZ3NFX2YEKQXSF3J,3,5,3,1.0,0,0,2,0,7,1.0,asocial
01JVTTB7B9EZ3NFX2YEKQXSF3J,3,6,3,1.0,0,0,3,0,7,1.0,asocial
01JVTTB7B9EZ3NFX2YEKQXSF3J,3,7,3,1.0,2,0,2,0,7,1.0,asocial
01JVTTB7B9EZ3NFX2YEKQXSF3J,3,8,3,1.0,0,0,2,0,7,1.0,asocial
01JVTTB7B9EZ3NFX2YEKQXSF3J,3,9,3,1.0,0,0,2,0,7,1.0,asocial
01JVTTB7B9EZ3NFX2YEKQXSF3J,4,0,3,1.0,0,0,2,0,3,1.0,asocial
01JVTTB7B9EZ3NFX2YEKQXSF3J,4,1,3,1.0,0,0,2,0,3,1.0,asocial
01JVTTB7B9EZ3NFX2YEKQXSF3J,4,2,3,1.0,0,0,1,0,3,1.0,asocial
01JVTTB7B9EZ3NFX2YEKQXSF3J,4,3,3,1.0,1,0,9,0,3,1.0,asocial
01JVTTB7B9EZ3NFX2YEKQXSF3J,4,4,3,1.0,0,0,1,0,3,1.0,asocial
01JVTTB7B9EZ3NFX2YEKQXSF3J,4,5,3,1.0,0,0,2,0,3,1.0,asocial
01JVTTB7B9EZ3NFX2YEKQXSF3J,4,6,3,1.0,0,0,6,0,3,1.0,asocial
01JVTTB7B9EZ3NFX2YEKQXSF3J,4,7,3,1.0,2,0,2,0,3,1.0,asocial
01JVTTB7B9EZ3NFX2YEKQXSF3J,4,8,3,1.0,0,0,3,0,3,1.0,asocial
01JVTTB7B9EZ3NFX2YEKQXSF3J,4,9,3,1.0,0,0,2,0,3,1.0,asocial
01JVTTB7B9EZ3NFX2YEKQXSF3J,5,0,3,0.0,0,0,2,0,3,1.0,asocial
01JVTTB7B9EZ3NFX2YEKQXSF3J,5,1,3,0.0,0,0,2,0,3,1.0,asocial
01JVTTB7B9EZ3NFX2YEKQXSF3J,5,2,3,0.0,0,0,1,0,3,1.0,asocial
01JVTTB7B9EZ3NFX2YEKQXSF3J,5,3,3,0.0,2,0,18,0,3,1.0,asocial
01JVTTB7B9EZ3NFX2YEKQXSF3J,5,4,3,0.0,0,0,1,0,3,1.0,asocial
01JVTTB7B9EZ3NFX2YEKQXSF3J,5,5,3,0.0,0,0,2,0,3,1.0,asocial
01JVTTB7B9EZ3NFX2YEKQXSF3J,5,6,3,0.0,0,0,6,0,3,1.0,asocial
01JVTTB7B9EZ3NFX2YEKQXSF3J,5,7,3,0.0,2,0,2,0,3,1.0,asocial
01JVTTB7B9EZ3NFX2YEKQXSF3J,5,8,3,0.0,0,0,4,0,3,1.0,asocial
01JVTTB7B9EZ3NFX2YEKQXSF3J,5,9,3,0.0,0,0,2,0,3,1.0,asocial
01JVTTB7B9EZ3NFX2YEKQXSF3J,6,0,3,0.0,0,0,2,0,3,0.0,asocial
01JVTTB7B9EZ3NFX2YEKQXSF3J,6,1,3,0.0,0,0,2,0,3,0.0,asocial
01JVTTB7B9EZ3NFX2YEKQXSF3J,6,2,3,0.0,0,0,1,0,3,0.0,asocial
01JVTTB7B9EZ3NFX2YEKQXSF3J,6,3,3,0.0,2,1,25,2,3,0.0,asocial
01JVTTB7B9EZ3NFX2YEKQXSF3J,6,4,3,0.0,0,0,1,0,3,0.0,asocial
01JVTTB7B9EZ3NFX2YEKQXSF3J,6,5,3,0.0,0,0,2,0,3,0.0,asocial
01JVTTB7B9EZ3NFX2YEKQXSF3J,6,6,3,0.0,0,0,7,0,3,0.0,asocial
01JVTTB7B9EZ3NFX2YEKQXSF3J,6,7,3,0.0,2,0,2,0,3,0.0,asocial
01JVTTB7B9EZ3NFX2YEKQXSF3J,6,8,3,0.0,0,0,4,0,3,0.0,asocial
01JVTTB7B9EZ3NFX2YEKQXSF3J,6,9,3,0.0,0,0,2,0,3,0.0,asocial
01JVTTB7B9EZ3NFX2YEKQXSF3J,7,0,3,1.0,0,0,2,0,3,0.0,asocial
01JVTTB7B9EZ3NFX2YEKQXSF3J,7,1,3,1.0,0,0,2,0,3,0.0,asocial
01JVTTB7B9EZ3NFX2YEKQXSF3J,7,2,3,1.0,0,0,1,0,3,0.0,asocial
01JVTTB7B9EZ3NFX2YEKQXSF3J,7,3,3,1.0,2,2,32,4,3,0.0,asocial
01JVTTB7B9EZ3NFX2YEKQXSF3J,7,4,3,1.0,0,0,1,0,3,0.0,asocial
01JVTTB7B9EZ3NFX2YEKQXSF3J,7,5,3,1.0,0,0,2,0,3,0.0,asocial
01JVTTB7B9EZ3NFX2YEKQXSF3J,7,6,3,1.0,0,0,8,0,3,0.0,asocial
01JVTTB7B9EZ3NFX2YEKQXSF3J,7,7,3,1.0,2,0,2,0,3,0.0,asocial
01JVTTB7B9EZ3NFX2YEKQXSF3J,7,8,3,1.0,0,0,4,0,3,0.0,asocial
01JVTTB7B9EZ3NFX2YEKQXSF3J,7,9,3,1.0,0,0,2,0,3,0.0,asocial
01JVTTB7B9EZ3NFX2YEKQXSF3J,8,0,3,1.0,0,0,2,0,3,1.0,asocial
01JVTTB7B9EZ3NFX2YEKQXSF3J,8,1,3,1.0,0,0,2,0,3,1.0,asocial
01JVTTB7B9EZ3NFX2YEKQXSF3J,8,2,3,1.0,0,0,1,0,3,1.0,asocial
01JVTTB7B9EZ3NFX2YEKQXSF3J,8,3,3,1.0,3,2,38,4,3,1.0,asocial
01JVTTB7B9EZ3NFX2YEKQXSF3J,8,4,3,1.0,0,0,1,0,3,1.0,asocial
01JVTTB7B9EZ3NFX2YEKQXSF3J,8,5,3,1.0,0,0,2,0,3,1.0,asocial
01JVTTB7B9EZ3NFX2YEKQXSF3J,8,6,3,1.0,0,0,12,0,3,1.0,asocial
01JVTTB7B9EZ3NFX2YEKQXSF3J,8,7,3,1.0,2,0,2,0,3,1.0,asocial
01JVTTB7B9EZ3NFX2YEKQXSF3J,8,8,3,1.0,0,0,4,0,3,1.0,asocial
01JVTTB7B9EZ3NFX2YEKQXSF3J,8,9,3,1.0,0,0,2,0,3,1.0,asocial
01JVTTB7B9EZ3NFX2YEKQXSF3J,9,0,3,1.0,0,0,2,0,3,1.0,asocial
01JVTTB7B9EZ3NFX2YEKQXSF3J,9,1,3,1.0,0,0,2,0,3,1.0,asocial
01JVTTB7B9EZ3NFX2YEKQXSF3J,9,2,3,1.0,0,0,1,0,3,1.0,asocial
01JVTTB7B9EZ3NFX2YEKQXSF3J,9,3,3,1.0,4,2,45,4,3,1.0,asocial
01JVTTB7B9EZ3NFX2YEKQXSF3J,9,4,3,1.0,0,0,1,0,3,1.0,asocial
01JVTTB7B9EZ3NFX2YEKQXSF3J,9,5,3,1.0,0,0,2,0,3,1.0,asocial
01JVTTB7B9EZ3NFX2YEKQXSF3J,9,6,3,1.0,0,0,15,0,3,1.0,asocial
01JVTTB7B9EZ3NFX2YEKQXSF3J,9,7,3,1.0,2,0,2,0,3,1.0,asocial
01JVTTB7B9EZ3NFX2YEKQXSF3J,9,8,3,1.0,0,0,4,0,3,1.0,asocial
01JVTTB7B9EZ3NFX2YEKQXSF3J,9,9,3,1.0,0,0,2,0,3,1.0,asocial
01JVTTB7B9EZ3NFX2YEKQXSF3J,10,0,3,0.0,0,0,2,0,3,1.0,asocial
01JVTTB7B9EZ3NFX2YEKQXSF3J,10,1,3,0.0,0,0,2,0,3,1.0,asocial
01JVTTB7B9EZ3NFX2YEKQXSF3J,10,2,3,0.0,0,0,1,0,3,1.0,asocial
01JVTTB7B9EZ3NFX2YEKQXSF3J,10,3,3,0.0,5,2,52,4,3,1.0,asocial
01JVTTB7B9EZ3NFX2YEKQXSF3J,10,4,3,0.0,0,0,1,0,3,1.0,asocial
01JVTTB7B9EZ3NFX2YEKQXSF3J,10,5,3,0.0,0,0,2,0,3,1.0,asocial
01JVTTB7B9EZ3NFX2YEKQXSF3J,10,6,3,0.0,0,0,18,0,3,1.0,asocial
01JVTTB7B9EZ3NFX2YEKQXSF3J,10,7,3,0.0,2,0,2,0,3,1.0,asocial
01JVTTB7B9EZ3NFX2YEKQXSF3J,10,8,3,0.0,0,0,4,0,3,1.0,asocial
01JVTTB7B9EZ3NFX2YEKQXSF3J,10,9,3,0.0,0,0,2,0,3,1.0,asocial
01JVTTB7B9EZ3NFX2YEKQXSF3J,11,0,3,1.0,0,0,2,0,3,0.0,asocial
01JVTTB7B9EZ3NFX2YEKQXSF3J,11,1,3,1.0,0,0,2,0,3,0.0,asocial
01JVTTB7B9EZ3NFX2YEKQXSF3J,11,2,3,1.0,0,0,1,0,3,0.0,asocial
01JVTTB7B9EZ3NFX2YEKQXSF3J,11,3,3,1.0,5,3,57,5,3,0.0,asocial
01JVTTB7B9EZ3NFX2YEKQXSF3J,11,4,3,1.0,0,0,1,0,3,0.0,asocial
01JVTTB7B9EZ3NFX2YEKQXSF3J,11,5,3,1.0,0,0,2,0,3,0.0,asocial
01JVTTB7B9EZ3NFX2YEKQXSF3J,11,6,3,1.0,0,0,22,0,3,0.0,asocial
01JVTTB7B9EZ3NFX2YEKQXSF3J,11,7,3,1.0,2,0,2,0,3,0.0,asocial
01JVTTB7B9EZ3NFX2YEKQXSF3J,11,8,3,1.0,0,0,4,0,3,0.0,asocial
01JVTTB7B9EZ3NFX2YEKQXSF3J,11,9,3,1.0,0,0,2,0,3,0.0,asocial
01JVTTB7B9EZ3NFX2YEKQXSF3J,12,0,3,1.0,0,0,2,0,3,1.0,asocial
01JVTTB7B9EZ3NFX2YEKQXSF3J,12,1,3,1.0,0,0,2,0,3,1.0,asocial
01JVTTB7B9EZ3NFX2YEKQXSF3J,12,2,3,1.0,0,0,1,0,3,1.0,asocial
01JVTTB7B9EZ3NFX2YEKQXSF3J,12,3,3,1.0,6,3,62,6,3,1.0,asocial
01JVTTB7B9EZ3NFX2YEKQXSF3J,12,4,3,1.0,0,0,1,0,3,1.0,asocial
01JVTTB7B9EZ3NFX2YEKQXSF3J,12,5,3,1.0,0,0,2,0,3,1.0,asocial
01JVTTB7B9EZ3NFX2YEKQXSF3J,12,6,3,1.0,0,0,25,1,3,1.0,asocial
01JVTTB7B9EZ3NFX2YEKQXSF3J,12,7,3,1.0,2,0,2,0,3,1.0,asocial
01JVTTB7B9EZ3NFX2YEKQXSF3J,12,8,3,1.0,0,0,4,0,3,1.0,asocial
01JVTTB7B9EZ3NFX2YEKQXSF3J,12,9,3,1.0,0,0,2,0,3,1.0,asocial
01JVTTB7B9EZ3NFX2YEKQXSF3J,13,0,3,1.0,0,0,2,0,3,1.0,asocial
01JVTTB7B9EZ3NFX2YEKQXSF3J,13,1,3,1.0,0,0,2,0,3,1.0,asocial
01JVTTB7B9EZ3NFX2YEKQXSF3J,13,2,3,1.0,0,0,1,0,3,1.0,asocial
01JVTTB7B9EZ3NFX2YEKQXSF3J,13,3,3,1.0,7,3,68,6,3,1.0,asocial
01JVTTB7B9EZ3NFX2YEKQXSF3J,13,4,3,1.0,0,0,1,0,3,1.0,asocial
01JVTTB7B9EZ3NFX2YEKQXSF3J,13,5,3,1.0,0,0,2,0,3,1.0,asocial
01JVTTB7B9EZ3NFX2YEKQXSF3J,13,6,3,1.0,0,0,29,1,3,1.0,asocial
01JVTTB7B9EZ3NFX2YEKQXSF3J,13,7,3,1.0,2,0,2,0,3,1.0,asocial
01JVTTB7B9EZ3NFX2YEKQXSF3J,13,8,3,1.0,0,0,4,0,3,1.0,asocial
01JVTTB7B9EZ3NFX2YEKQXSF3J,13,9,3,1.0,0,0,2,0,3,1.0,asocial
01JVTTB7B9EZ3NFX2YEKQXSF3J,14,0,3,1.0,0,0,2,0,3,1.0,asocial
01JVTTB7B9EZ3NFX2YEKQXSF3J,14,1,3,1.0,0,0,2,0,3,1.0,asocial
01JVTTB7B9EZ3NFX2YEKQXSF3J,14,2,3,1.0,0,0,1,0,3,1.0,asocial
01JVTTB7B9EZ3NFX2YEKQXSF3J,14,3,3,1.0,8,3,73,7,3,1.0,asocial
01JVTTB7B9EZ3NFX2YEKQXSF3J,14,4,3,1.0,0,0,1,0,3,1.0,asocial
01JVTTB7B9EZ3NFX2YEKQXSF3J,14,5,3,1.0,0,0,2,0,3,1.0,asocial
01JVTTB7B9EZ3NFX2YEKQXSF3J,14,6,3,1.0,0,0,32,2,3,1.0,asocial
01JVTTB7B9EZ3NFX2YEKQXSF3J,14,7,3,1.0,2,0,2,0,3,1.0,asocial
01JVTTB7B9EZ3NFX2YEKQXSF3J,14,8,3,1.0,0,0,4,0,3,1.0,asocial
01JVTTB7B9EZ3NFX2YEKQXSF3J,14,9,3,1.0,0,0,2,0,3,1.0,asocial
01JVTTB7B9EZ3NFX2YEKQXSF3J,15,0,3,1.0,0,0,2,0,3,1.0,asocial
01JVTTB7B9EZ3NFX2YEKQXSF3J,15,1,3,1.0,0,0,2,0,3,1.0,asocial
01JVTTB7B9EZ3NFX2YEKQXSF3J,15,2,3,1.0,0,0,1,0,3,1.0,asocial
01JVTTB7B9EZ3NFX2YEKQXSF3J,15,3,3,1.0,9,3,78,7,3,1.0,asocial
01JVTTB7B9EZ3NFX2YEKQXSF3J,15,4,3,1.0,0,0,1,0,3,1.0,asocial
01JVTTB7B9EZ3NFX2YEKQXSF3J,15,5,3,1.0,0,0,2,0,3,1.0,asocial
01JVTTB7B9EZ3NFX2YEKQXSF3J,15,6,3,1.0,0,0,36,2,3,1.0,asocial
01JVTTB7B9EZ3NFX2YEKQXSF3J,15,7,3,1.0,2,0,2,0,3,1.0,asocial
01JVTTB7B9EZ3NFX2YEKQXSF3J,15,8,3,1.0,0,0,5,0,3,1.0,asocial
01JVTTB7B9EZ3NFX2YEKQXSF3J,15,9,3,1.0,0,0,2,0,3,1.0,asocial
01JVTTB7B9EZ3NFX2YEKQXSF3J,16,0,3,1.0,0,0,2,0,3,1.0,asocial
01JVTTB7B9EZ3NFX2YEKQXSF3J,16,1,3,1.0,0,0,2,0,3,1.0,asocial
01JVTTB7B9EZ3NFX2YEKQXSF3J,16,2,3,1.0,0,0,1,0,3,1.0,asocial
01JVTTB7B9EZ3NFX2YEKQXSF3J,16,3,3,1.0,10,3,83,7,3,1.0,asocial
01JVTTB7B9EZ3NFX2YEKQXSF3J,16,4,3,1.0,0,0,1,0,3,1.0,asocial
01JVTTB7B9EZ3NFX2YEKQXSF3J,16,5,3,1.0,0,0,2,0,3,1.0,asocial
01JVTTB7B9EZ3NFX2YEKQXSF3J,16,6,3,1.0,0,0,40,2,3,1.0,asocial
01JVTTB7B9EZ3NFX2YEKQXSF3J,16,7,3,1.0,2,0,2,0,3,1.0,asocial
01JVTTB7B9EZ3NFX2YEKQXSF3J,16,8,3,1.0,0,0,6,0,3,1.0,asocial
01JVTTB7B9EZ3NFX2YEKQXSF3J,16,9,3,1.0,0,0,2,0,3,1.0,asocial
01JVTTB7B9EZ3NFX2YEKQXSF3J,17,0,3,1.0,0,0,2,0,3,1.0,asocial
01JVTTB7B9EZ3NFX2YEKQXSF3J,17,1,3,1.0,0,0,2,0,3,1.0,asocial
01JVTTB7B9EZ3NFX2YEKQXSF3J,17,2,3,1.0,0,0,1,0,3,1.0,asocial
01JVTTB7B9EZ3NFX2YEKQXSF3J,17,3,3,1.0,11,3,89,7,3,1.0,asocial
01JVTTB7B9EZ3NFX2YEKQXSF3J,17,4,3,1.0,0,0,1,0,3,1.0,asocial
01JVTTB7B9EZ3NFX2YEKQXSF3J,17,5,3,1.0,0,0,2,0,3,1.0,asocial
01JVTTB7B9EZ3NFX2YEKQXSF3J,17,6,3,1.0,0,0,43,3,3,1.0,asocial
01JVTTB7B9EZ3NFX2YEKQXSF3J,17,7,3,1.0,2,0,2,0,3,1.0,asocial
01JVTTB7B9EZ3NFX2YEKQXSF3J,17,8,3,1.0,0,0,6,0,3,1.0,asocial
01JVTTB7B9EZ3NFX2YEKQXSF3J,17,9,3,1.0,0,0,2,0,3,1.0,asocial
01JVTTB7B9EZ3NFX2YEKQXSF3J,18,0,3,1.0,0,0,2,0,3,1.0,asocial
01JVTTB7B9EZ3NFX2YEKQXSF3J,18,1,3,1.0,0,0,2,0,3,1.0,asocial
01JVTTB7B9EZ3NFX2YEKQXSF3J,18,2,3,1.0,0,0,1,0,3,1.0,asocial
01JVTTB7B9EZ3NFX2YEKQXSF3J,18,3,3,1.0,12,3,96,7,3,1.0,asocial
01JVTTB7B9EZ3NFX2YEKQXSF3J,18,4,3,1.0,0,0,1,0,3,1.0,asocial
01JVTTB7B9EZ3NFX2YEKQXSF3J,18,5,3,1.0,0,0,2,0,3,1.0,asocial
01JVTTB7B9EZ3NFX2YEKQXSF3J,18,6,3,1.0,0,0,45,3,3,1.0,asocial
01JVTTB7B9EZ3NFX2YEKQXSF3J,18,7,3,1.0,2,0,2,0,3,1.0,asocial
01JVTTB7B9EZ3NFX2YEKQXSF3J,18,8,3,1.0,0,0,7,0,3,1.0,asocial
01JVTTB7B9EZ3NFX2YEKQXSF3J,18,9,3,1.0,0,0,2,0,3,1.0,asocial
01JVTTB7B9EZ3NFX2YEKQXSF3J,19,0,3,1.0,0,0,2,0,3,1.0,asocial
01JVTTB7B9EZ3NFX2YEKQXSF3J,19,1,3,1.0,0,0,2,0,3,1.0,asocial
01JVTTB7B9EZ3NFX2YEKQXSF3J,19,2,3,1.0,0,0,1,0,3,1.0,asocial
01JVTTB7B9EZ3NFX2YEKQXSF3J,19,3,3,1.0,13,3,103,8,3,1.0,asocial
01JVTTB7B9EZ3NFX2YEKQXSF3J,19,4,3,1.0,0,0,1,0,3,1.0,asocial
01JVTTB7B9EZ3NFX2YEKQXSF3J,19,5,3,1.0,0,0,2,0,3,1.0,asocial
01JVTTB7B9EZ3NFX2YEKQXSF3J,19,6,3,1.0,0,0,45,4,3,1.0,asocial
01JVTTB7B9EZ3NFX2YEKQXSF3J,19,7,3,1.0,2,0,2,0,3,1.0,asocial
01JVTTB7B9EZ3NFX2YEKQXSF3J,19,8,3,1.0,0,0,8,0,3,1.0,asocial
01JVTTB7B9EZ3NFX2YEKQXSF3J,19,9,3,1.0,0,0,2,0,3,1.0,asocial
01JVTTB7B9EZ3NFX2YEKQXSF3J,20,0,3,1.0,0,0,2,0,3,1.0,asocial
01JVTTB7B9EZ3NFX2YEKQXSF3J,20,1,3,1.0,0,0,2,0,3,1.0,asocial
01JVTTB7B9EZ3NFX2YEKQXSF3J,20,2,3,1.0,0,0,1,0,3,1.0,asocial
01JVTTB7B9EZ3NFX2YEKQXSF3J,20,3,3,1.0,14,3,110,8,3,1.0,asocial
01JVTTB7B9EZ3NFX2YEKQXSF3J,20,4,3,1.0,0,0,1,0,3,1.0,asocial
01JVTTB7B9EZ3NFX2YEKQXSF3J,20,5,3,1.0,0,0,2,0,3,1.0,asocial
01JVTTB7B9EZ3NFX2YEKQXSF3J,20,6,3,1.0,0,0,46,4,3,1.0,asocial
01JVTTB7B9EZ3NFX2YEKQXSF3J,20,7,3,1.0,2,0,2,0,3,1.0,asocial
01JVTTB7B9EZ3NFX2YEKQXSF3J,20,8,3,1.0,0,0,10,0,3,1.0,asocial
01JVTTB7B9EZ3NFX2YEKQXSF3J,20,9,3,1.0,0,0,2,0,3,1.0,asocial
01JVTTB7B9EZ3NFX2YEKQXSF3J,21,0,3,1.0,0,0,2,0,3,1.0,asocial
01JVTTB7B9EZ3NFX2YEKQXSF3J,21,1,3,1.0,0,0,2,0,3,1.0,asocial
01JVTTB7B9EZ3NFX2YEKQXSF3J,21,2,3,1.0,0,0,1,0,3,1.0,asocial
01JVTTB7B9EZ3NFX2YEKQXSF3J,21,3,3,1.0,15,3,116,8,3,1.0,asocial
01JVTTB7B9EZ3NFX2YEKQXSF3J,21,4,3,1.0,0,0,1,0,3,1.0,asocial
01JVTTB7B9EZ3NFX2YEKQXSF3J,21,5,3,1.0,0,0,2,0,3,1.0,asocial
01JVTTB7B9EZ3NFX2YEKQXSF3J,21,6,3,1.0,0,0,47,4,3,1.0,asocial
01JVTTB7B9EZ3NFX2YEKQXSF3J,21,7,3,1.0,2,0,2,0,3,1.0,asocial
01JVTTB7B9EZ3NFX2YEKQXSF3J,21,8,3,1.0,0,0,13,0,3,1.0,asocial
01JVTTB7B9EZ3NFX2YEKQXSF3J,21,9,3,1.0,0,0,2,0,3,1.0,asocial
01JVTTB7B9EZ3NFX2YEKQXSF3J,22,0,3,1.0,0,0,2,0,3,1.0,asocial
01JVTTB7B9EZ3NFX2YEKQXSF3J,22,1,3,1.0,0,0,2,0,3,1.0,asocial
01JVTTB7B9EZ3NFX2YEKQXSF3J,22,2,3,1.0,0,0,1,0,3,1.0,asocial
01JVTTB7B9EZ3NFX2YEKQXSF3J,22,3,3,1.0,16,3,121,8,3,1.0,asocial
01JVTTB7B9EZ3NFX2YEKQXSF3J,22,4,3,1.0,0,0,1,0,3,1.0,asocial
01JVTTB7B9EZ3NFX2YEKQXSF3J,22,5,3,1.0,0,0,2,0,3,1.0,asocial
01JVTTB7B9EZ3NFX2YEKQXSF3J,22,6,3,1.0,0,0,49,4,3,1.0,asocial
01JVTTB7B9EZ3NFX2YEKQXSF3J,22,7,3,1.0,2,0,2,0,3,1.0,asocial
01JVTTB7B9EZ3NFX2YEKQXSF3J,22,8,3,1.0,0,0,16,0,3,1.0,asocial
01JVTTB7B9EZ3NFX2YEKQXSF3J,22,9,3,1.0,0,0,2,0,3,1.0,asocial
01JVTTB7B9EZ3NFX2YEKQXSF3J,23,0,3,1.0,0,0,2,0,3,1.0,asocial
01JVTTB7B9EZ3NFX2YEKQXSF3J,23,1,3,1.0,0,0,2,0,3,1.0,asocial
01JVTTB7B9EZ3NFX2YEKQXSF3J,23,2,3,1.0,0,0,1,0,3,1.0,asocial
01JVTTB7B9EZ3NFX2YEKQXSF3J,23,3,3,1.0,17,3,127,8,3,1.0,asocial
01JVTTB7B9EZ3NFX2YEKQXSF3J,23,4,3,1.0,0,0,1,0,3,1.0,asocial
01JVTTB7B9EZ3NFX2YEKQXSF3J,23,5,3,1.0,0,0,2,0,3,1.0,asocial
01JVTTB7B9EZ3NFX2YEKQXSF3J,23,6,3,1.0,0,0,50,4,3,1.0,asocial
01JVTTB7B9EZ3NFX2YEKQXSF3J,23,7,3,1.0,2,0,2,0,3,1.0,asocial
01JVTTB7B9EZ3NFX2YEKQXSF3J,23,8,3,1.0,0,0,19,0,3,1.0,asocial
01JVTTB7B9EZ3NFX2YEKQXSF3J,23,9,3,1.0,0,0,2,0,3,1.0,asocial
01JVTTB7B9EZ3NFX2YEKQXSF3J,24,0,3,1.0,0,0,2,0,3,1.0,asocial
01JVTTB7B9EZ3NFX2YEKQXSF3J,24,1,3,1.0,0,0,2,0,3,1.0,asocial
01JVTTB7B9EZ3NFX2YEKQXSF3J,24,2,3,1.0,0,0,1,0,3,1.0,asocial
01JVTTB7B9EZ3NFX2YEKQXSF3J,24,3,3,1.0,18,3,132,8,3,1.0,asocial
01JVTTB7B9EZ3NFX2YEKQXSF3J,24,4,3,1.0,0,0,1,0,3,1.0,asocial
01JVTTB7B9EZ3NFX2YEKQXSF3J,24,5,3,1.0,0,0,2,0,3,1.0,asocial
01JVTTB7B9EZ3NFX2YEKQXSF3J,24,6,3,1.0,0,0,51,4,3,1.0,asocial
01JVTTB7B9EZ3NFX2YEKQXSF3J,24,7,3,1.0,2,0,2,0,3,1.0,asocial
01JVTTB7B9EZ3NFX2YEKQXSF3J,24,8,3,1.0,0,0,20,3,3,1.0,asocial
01JVTTB7B9EZ3NFX2YEKQXSF3J,24,9,3,1.0,0,0,2,0,3,1.0,asocial
01JVTTB7B9EZ3NFX2YEKQXSF3J,25,0,3,1.0,0,0,2,0,3,1.0,asocial
01JVTTB7B9EZ3NFX2YEKQXSF3J,25,1,3,1.0,0,0,3,0,3,1.0,asocial
01JVTTB7B9EZ3NFX2YEKQXSF3J,25,2,3,1.0,0,0,1,0,3,1.0,asocial
01JVTTB7B9EZ3NFX2YEKQXSF3J,25,3,3,1.0,19,3,138,9,3,1.0,asocial
01JVTTB7B9EZ3NFX2YEKQXSF3J,25,4,3,1.0,0,0,1,0,3,1.0,asocial
01JVTTB7B9EZ3NFX2YEKQXSF3J,25,5,3,1.0,0,0,2,0,3,1.0,asocial
01JVTTB7B9EZ3NFX2YEKQXSF3J,25,6,3,1.0,0,0,52,4,3,1.0,asocial
01JVTTB7B9EZ3NFX2YEKQXSF3J,25,7,3,1.0,2,0,2,0,3,1.0,asocial
01JVTTB7B9EZ3NFX2YEKQXSF3J,25,8,3,1.0,0,0,21,3,3,1.0,asocial
01JVTTB7B9EZ3NFX2YEKQXSF3J,25,9,3,1.0,0,0,2,0,3,1.0,asocial
01JVTTB7B9EZ3NFX2YEKQXSF3J,26,0,3,1.0,0,0,2,0,3,1.0,asocial
01JVTTB7B9EZ3NFX2YEKQXSF3J,26,1,3,1.0,0,0,4,0,3,1.0,asocial
01JVTTB7B9EZ3NFX2YEKQXSF3J,26,2,3,1.0,0,0,1,0,3,1.0,asocial
01JVTTB7B9EZ3NFX2YEKQXSF3J,26,3,3,1.0,20,3,144,11,3,1.0,asocial
01JVTTB7B9EZ3NFX2YEKQXSF3J,26,4,3,1.0,0,0,1,0,3,1.0,asocial
01JVTTB7B9EZ3NFX2YEKQXSF3J,26,5,3,1.0,0,0,2,0,3,1.0,asocial
01JVTTB7B9EZ3NFX2YEKQXSF3J,26,6,3,1.0,0,0,53,4,3,1.0,asocial
01JVTTB7B9EZ3NFX2YEKQXSF3J,26,7,3,1.0,2,0,2,0,3,1.0,asocial
01JVTTB7B9EZ3NFX2YEKQXSF3J,26,8,3,1.0,0,0,21,3,3,1.0,asocial
01JVTTB7B9EZ3NFX2YEKQXSF3J,26,9,3,1.0,0,0,2,0,3,1.0,asocial
01JVTTB7B9EZ3NFX2YEKQXSF3J,27,0,3,1.0,0,0,2,0,3,1.0,asocial
01JVTTB7B9EZ3NFX2YEKQXSF3J,27,1,3,1.0,0,0,4,0,3,1.0,asocial
01JVTTB7B9EZ3NFX2YEKQXSF3J,27,2,3,1.0,0,0,1,0,3,1.0,asocial
01JVTTB7B9EZ3NFX2YEKQXSF3J,27,3,3,1.0,21,3,148,14,3,1.0,asocial
01JVTTB7B9EZ3NFX2YEKQXSF3J,27,4,3,1.0,0,0,1,0,3,1.0,asocial
01JVTTB7B9EZ3NFX2YEKQXSF3J,27,5,3,1.0,0,0,2,0,3,1.0,asocial
01JVTTB7B9EZ3NFX2YEKQXSF3J,27,6,3,1.0,0,0,56,4,3,1.0,asocial
01JVTTB7B9EZ3NFX2YEKQXSF3J,27,7,3,1.0,2,0,2,0,3,1.0,asocial
01JVTTB7B9EZ3NFX2YEKQXSF3J,27,8,3,1.0,0,0,21,3,3,1.0,asocial
01JVTTB7B9EZ3NFX2YEKQXSF3J,27,9,3,1.0,0,0,2,0,3,1.0,asocial
01JVTTB7B9EZ3NFX2YEKQXSF3J,28,0,3,1.0,0,0,2,0,3,1.0,asocial
01JVTTB7B9EZ3NFX2YEKQXSF3J,28,1,3,1.0,0,0,5,0,3,1.0,asocial
01JVTTB7B9EZ3NFX2YEKQXSF3J,28,2,3,1.0,0,0,1,0,3,1.0,asocial
01JVTTB7B9EZ3NFX2YEKQXSF3J,28,3,3,1.0,22,3,153,15,3,1.0,asocial
01JVTTB7B9EZ3NFX2YEKQXSF3J,28,4,3,1.0,0,0,1,0,3,1.0,asocial
01JVTTB7B9EZ3NFX2YEKQXSF3J,28,5,3,1.0,0,0,2,0,3,1.0,asocial
01JVTTB7B9EZ3NFX2YEKQXSF3J,28,6,3,1.0,0,0,59,4,3,1.0,asocial
01JVTTB7B9EZ3NFX2YEKQXSF3J,28,7,3,1.0,2,0,2,0,3,1.0,asocial
01JVTTB7B9EZ3NFX2YEKQXSF3J,28,8,3,1.0,0,0,21,3,3,1.0,asocial
01JVTTB7B9EZ3NFX2YEKQXSF3J,28,9,3,1.0,0,0,2,0,3,1.0,asocial
01JVTTB7B9EZ3NFX2YEKQXSF3J,29,0,3,1.0,0,0,2,0,3,1.0,asocial
01JVTTB7B9EZ3NFX2YEKQXSF3J,29,1,3,1.0,0,0,6,0,3,1.0,asocial
01JVTTB7B9EZ3NFX2YEKQXSF3J,29,2,3,1.0,0,0,1,0,3,1.0,asocial
01JVTTB7B9EZ3NFX2YEKQXSF3J,29,3,3,1.0,23,3,158,15,3,1.0,asocial
01JVTTB7B9EZ3NFX2YEKQXSF3J,29,4,3,1.0,0,0,1,0,3,1.0,asocial
01JVTTB7B9EZ3NFX2YEKQXSF3J,29,5,3,1.0,0,0,2,0,3,1.0,asocial
01JVTTB7B9EZ3NFX2YEKQXSF3J,29,6,3,1.0,0,0,63,4,3,1.0,asocial
01JVTTB7B9EZ3NFX2YEKQXSF3J,29,7,3,1.0,2,0,2,0,3,1.0,asocial
01JVTTB7B9EZ3NFX2YEKQXSF3J,29,8,3,1.0,0,0,21,3,3,1.0,asocial
01JVTTB7B9EZ3NFX2YEKQXSF3J,29,9,3,1.0,0,0,2,0,3,1.0,asocial
01JVTTB7B9EZ3NFX2YEKQXSF3J,30,0,3,1.0,0,0,2,0,3,1.0,asocial
01JVTTB7B9EZ3NFX2YEKQXSF3J,30,1,3,1.0,0,0,7,0,3,1.0,asocial
01JVTTB7B9EZ3NFX2YEKQXSF3J,30,2,3,1.0,0,0,1,0,3,1.0,asocial
01JVTTB7B9EZ3NFX2YEKQXSF3J,30,3,3,1.0,24,3,163,15,3,1.0,asocial
01JVTTB7B9EZ3NFX2YEKQXSF3J,30,4,3,1.0,0,0,1,0,3,1.0,asocial
01JVTTB7B9EZ3NFX2YEKQXSF3J,30,5,3,1.0,0,0,2,0,3,1.0,asocial
01JVTTB7B9EZ3NFX2YEKQXSF3J,30,6,3,1.0,0,0,66,5,3,1.0,asocial
01JVTTB7B9EZ3NFX2YEKQXSF3J,30,7,3,1.0,2,0,2,0,3,1.0,asocial
01JVTTB7B9EZ3NFX2YEKQXSF3J,30,8,3,1.0,0,0,21,3,3,1.0,asocial
01JVTTB7B9EZ3NFX2YEKQXSF3J,30,9,3,1.0,0,0,2,0,3,1.0,asocial
01JVTTB7B9EZ3NFX2YEKQXSF3J,31,0,3,1.0,0,0,2,0,3,1.0,asocial
01JVTTB7B9EZ3NFX2YEKQXSF3J,31,1,3,1.0,0,0,9,0,3,1.0,asocial
01JVTTB7B9EZ3NFX2YEKQXSF3J,31,2,3,1.0,0,0,1,0,3,1.0,asocial
01JVTTB7B9EZ3NFX2YEKQXSF3J,31,3,3,1.0,25,3,167,16,3,1.0,asocial
01JVTTB7B9EZ3NFX2YEKQXSF3J,31,4,3,1.0,0,0,1,0,3,1.0,asocial
01JVTTB7B9EZ3NFX2YEKQXSF3J,31,5,3,1.0,0,0,2,0,3,1.0,asocial
01JVTTB7B9EZ3NFX2YEKQXSF3J,31,6,3,1.0,0,0,67,7,3,1.0,asocial
01JVTTB7B9EZ3NFX2YEKQXSF3J,31,7,3,1.0,2,0,2,0,3,1.0,asocial
01JVTTB7B9EZ3NFX2YEKQXSF3J,31,8,3,1.0,0,0,21,3,3,1.0,asocial
01JVTTB7B9EZ3NFX2YEKQXSF3J,31,9,3,1.0,0,0,2,0,3,1.0,asocial
01JVTTB7B9EZ3NFX2YEKQXSF3J,32,0,3,1.0,0,0,2,0,3,1.0,asocial
01JVTTB7B9EZ3NFX2YEKQXSF3J,32,1,3,1.0,0,0,12,0,3,1.0,asocial
01JVTTB7B9EZ3NFX2YEKQXSF3J,32,2,3,1.0,0,0,1,0,3,1.0,asocial
01JVTTB7B9EZ3NFX2YEKQXSF3J,32,3,3,1.0,26,3,173,16,3,1.0,asocial
01JVTTB7B9EZ3NFX2YEKQXSF3J,32,4,3,1.0,0,0,1,0,3,1.0,asocial
01JVTTB7B9EZ3NFX2YEKQXSF3J,32,5,3,1.0,0,0,2,0,3,1.0,asocial
01JVTTB7B9EZ3NFX2YEKQXSF3J,32,6,3,1.0,0,0,68,7,3,1.0,asocial
01JVTTB7B9EZ3NFX2YEKQXSF3J,32,7,3,1.0,2,0,2,0,3,1.0,asocial
01JVTTB7B9EZ3NFX2YEKQXSF3J,32,8,3,1.0,0,0,21,3,3,1.0,asocial
01JVTTB7B9EZ3NFX2YEKQXSF3J,32,9,3,1.0,0,0,2,0,3,1.0,asocial
01JVTTB7B9EZ3NFX2YEKQXSF3J,33,0,3,1.0,0,0,2,0,3,1.0,asocial
01JVTTB7B9EZ3NFX2YEKQXSF3J,33,1,3,1.0,0,0,15,0,3,1.0,asocial
01JVTTB7B9EZ3NFX2YEKQXSF3J,33,2,3,1.0,0,0,1,0,3,1.0,asocial
01JVTTB7B9EZ3NFX2YEKQXSF3J,33,3,3,1.0,27,3,178,17,3,1.0,asocial
01JVTTB7B9EZ3NFX2YEKQXSF3J,33,4,3,1.0,0,0,1,0,3,1.0,asocial
01JVTTB7B9EZ3NFX2YEKQXSF3J,33,5,3,1.0,0,0,2,0,3,1.0,asocial
01JVTTB7B9EZ3NFX2YEKQXSF3J,33,6,3,1.0,0,0,69,7,3,1.0,asocial
01JVTTB7B9EZ3NFX2YEKQXSF3J,33,7,3,1.0,2,0,2,0,3,1.0,asocial
01JVTTB7B9EZ3NFX2YEKQXSF3J,33,8,3,1.0,0,0,21,3,3,1.0,asocial
01JVTTB7B9EZ3NFX2YEKQXSF3J,33,9,3,1.0,0,0,2,0,3,1.0,asocial
01JVTTB7B9EZ3NFX2YEKQXSF3J,34,0,3,1.0,0,0,2,0,3,1.0,asocial
01JVTTB7B9EZ3NFX2YEKQXSF3J,34,1,3,1.0,0,0,18,0,3,1.0,asocial
01JVTTB7B9EZ3NFX2YEKQXSF3J,34,2,3,1.0,0,0,1,0,3,1.0,asocial
01JVTTB7B9EZ3NFX2YEKQXSF3J,34,3,3,1.0,28,3,182,19,3,1.0,asocial
01JVTTB7B9EZ3NFX2YEKQXSF3J,34,4,3,1.0,0,0,1,0,3,1.0,asocial
01JVTTB7B9EZ3NFX2YEKQXSF3J,34,5,3,1.0,0,0,2,0,3,1.0,asocial
01JVTTB7B9EZ3NFX2YEKQXSF3J,34,6,3,1.0,0,0,70,7,3,1.0,asocial
01JVTTB7B9EZ3NFX2YEKQXSF3J,34,7,3,1.0,2,0,2,0,3,1.0,asocial
01JVTTB7B9EZ3NFX2YEKQXSF3J,34,8,3,1.0,0,0,21,3,3,1.0,asocial
01JVTTB7B9EZ3NFX2YEKQXSF3J,34,9,3,1.0,0,0,2,0,3,1.0,asocial
01JVTTB7B9EZ3NFX2YEKQXSF3J,35,0,3,1.0,0,0,2,0,3,1.0,asocial
01JVTTB7B9EZ3NFX2YEKQXSF3J,35,1,3,1.0,0,0,20,1,3,1.0,asocial
01JVTTB7B9EZ3NFX2YEKQXSF3J,35,2,3,1.0,0,0,1,0,3,1.0,asocial
01JVTTB7B9EZ3NFX2YEKQXSF3J,35,3,3,1.0,29,3,188,19,3,1.0,asocial
01JVTTB7B9EZ3NFX2YEKQXSF3J,35,4,3,1.0,0,0,1,0,3,1.0,asocial
01JVTTB7B9EZ3NFX2YEKQXSF3J,35,5,3,1.0,0,0,2,0,3,1.0,asocial
01JVTTB7B9EZ3NFX2YEKQXSF3J,35,6,3,1.0,0,0,71,7,3,1.0,asocial
01JVTTB7B9EZ3NFX2YEKQXSF3J,35,7,3,1.0,2,0,2,0,3,1.0,asocial
01JVTTB7B9EZ3NFX2YEKQXSF3J,35,8,3,1.0,0,0,21,3,3,1.0,asocial
01JVTTB7B9EZ3NFX2YEKQXSF3J,35,9,3,1.0,0,0,2,0,3,1.0,asocial
01JVTTB7B9EZ3NFX2YEKQXSF3J,36,0,3,1.0,0,0,2,0,3,1.0,asocial
01JVTTB7B9EZ3NFX2YEKQXSF3J,36,1,3,1.0,0,0,23,1,3,1.0,asocial
01JVTTB7B9EZ3NFX2YEKQXSF3J,36,2,3,1.0,0,0,1,0,3,1.0,asocial
01JVTTB7B9EZ3NFX2YEKQXSF3J,36,3,3,1.0,30,3,194,20,3,1.0,asocial
01JVTTB7B9EZ3NFX2YEKQXSF3J,36,4,3,1.0,0,0,1,0,3,1.0,asocial
01JVTTB7B9EZ3NFX2YEKQXSF3J,36,5,3,1.0,0,0,2,0,3,1.0,asocial
01JVTTB7B9EZ3NFX2YEKQXSF3J,36,6,3,1.0,0,0,71,7,3,1.0,asocial
01JVTTB7B9EZ3NFX2YEKQXSF3J,36,7,3,1.0,2,0,2,0,3,1.0,asocial
01JVTTB7B9EZ3NFX2YEKQXSF3J,36,8,3,1.0,0,0,21,3,3,1.0,asocial
01JVTTB7B9EZ3NFX2YEKQXSF3J,36,9,3,1.0,0,0,2,0,3,1.0,asocial
01JVTTB7B9EZ3NFX2YEKQXSF3J,37,0,3,1.0,0,0,2,0,3,1.0,asocial
01JVTTB7B9EZ3NFX2YEKQXSF3J,37,1,3,1.0,0,0,25,1,3,1.0,asocial
01JVTTB7B9EZ3NFX2YEKQXSF3J,37,2,3,1.0,0,0,1,0,3,1.0,asocial
01JVTTB7B9EZ3NFX2YEKQXSF3J,37,3,3,1.0,31,3,200,20,3,1.0,asocial
01JVTTB7B9EZ3NFX2YEKQXSF3J,37,4,3,1.0,0,0,1,0,3,1.0,asocial
01JVTTB7B9EZ3NFX2YEKQXSF3J,37,5,3,1.0,0,0,2,0,3,1.0,asocial
01JVTTB7B9EZ3NFX2YEKQXSF3J,37,6,3,1.0,0,0,72,7,3,1.0,asocial
01JVTTB7B9EZ3NFX2YEKQXSF3J,37,7,3,1.0,2,0,3,0,3,1.0,asocial
01JVTTB7B9EZ3NFX2YEKQXSF3J,37,8,3,1.0,0,0,21,3,3,1.0,asocial
01JVTTB7B9EZ3NFX2YEKQXSF3J,37,9,3,1.0,0,0,2,0,3,1.0,asocial
01JVTTB7B9EZ3NFX2YEKQXSF3J,38,0,3,1.0,0,0,2,0,3,1.0,asocial
01JVTTB7B9EZ3NFX2YEKQXSF3J,38,1,3,1.0,0,0,27,1,3,1.0,asocial
01JVTTB7B9EZ3NFX2YEKQXSF3J,38,2,3,1.0,0,0,2,0,3,1.0,asocial
01JVTTB7B9EZ3NFX2YEKQXSF3J,38,3,3,1.0,32,3,204,22,3,1.0,asocial
01JVTTB7B9EZ3NFX2YEKQXSF3J,38,4,3,1.0,0,0,1,0,3,1.0,asocial
01JVTTB7B9EZ3NFX2YEKQXSF3J,38,5,3,1.0,0,0,2,0,3,1.0,asocial
01JVTTB7B9EZ3NFX2YEKQXSF3J,38,6,3,1.0,0,0,73,7,3,1.0,asocial
01JVTTB7B9EZ3NFX2YEKQXSF3J,38,7,3,1.0,2,0,3,0,3,1.0,asocial
01JVTTB7B9EZ3NFX2YEKQXSF3J,38,8,3,1.0,0,0,21,3,3,1.0,asocial
01JVTTB7B9EZ3NFX2YEKQXSF3J,38,9,3,1.0,0,0,2,0,3,1.0,asocial
01JVTTB7B9EZ3NFX2YEKQXSF3J,39,0,3,1.0,0,0,2,0,3,1.0,asocial
01JVTTB7B9EZ3NFX2YEKQXSF3J,39,1,3,1.0,0,0,29,1,3,1.0,asocial
01JVTTB7B9EZ3NFX2YEKQXSF3J,39,2,3,1.0,0,0,3,0,3,1.0,asocial
01JVTTB7B9EZ3NFX2YEKQXSF3J,39,3,3,1.0,33,3,208,23,3,1.0,asocial
01JVTTB7B9EZ3NFX2YEKQXSF3J,39,4,3,1.0,0,0,1,0,3,1.0,asocial
01JVTTB7B9EZ3NFX2YEKQXSF3J,39,5,3,1.0,0,0,2,0,3,1.0,asocial
01JVTTB7B9EZ3NFX2YEKQXSF3J,39,6,3,1.0,0,0,75,7,3,1.0,asocial
01JVTTB7B9EZ3NFX2YEKQXSF3J,39,7,3,1.0,2,0,3,0,3,1.0,asocial
01JVTTB7B9EZ3NFX2YEKQXSF3J,39,8,3,1.0,0,0,21,3,3,1.0,asocial
01JVTTB7B9EZ3NFX2YEKQXSF3J,39,9,3,1.0,0,0,2,0,3,1.0,asocial
01JVTTB7B9EZ3NFX2YEKQXSF3J,40,0,3,1.0,0,0,2,0,3,1.0,asocial
01JVTTB7B9EZ3NFX2YEKQXSF3J,40,1,3,1.0,0,0,31,1,3,1.0,asocial
01JVTTB7B9EZ3NFX2YEKQXSF3J,40,2,3,1.0,0,0,3,0,3,1.0,asocial
01JVTTB7B9EZ3NFX2YEKQXSF3J,40,3,3,1.0,34,3,213,23,3,1.0,asocial
01JVTTB7B9EZ3NFX2YEKQXSF3J,40,4,3,1.0,0,0,1,0,3,1.0,asocial
01JVTTB7B9EZ3NFX2YEKQXSF3J,40,5,3,1.0,0,0,2,0,3,1.0,asocial
01JVTTB7B9EZ3NFX2YEKQXSF3J,40,6,3,1.0,0,0,77,7,3,1.0,asocial
01JVTTB7B9EZ3NFX2YEKQXSF3J,40,7,3,1.0,2,0,4,0,3,1.0,asocial
01JVTTB7B9EZ3NFX2YEKQXSF3J,40,8,3,1.0,0,0,21,3,3,1.0,asocial
01JVTTB7B9EZ3NFX2YEKQXSF3J,40,9,3,1.0,0,0,2,0,3,1.0,asocial
01JVTTB7B9EZ3NFX2YEKQXSF3J,41,0,3,1.0,0,0,2,0,3,1.0,asocial
01JVTTB7B9EZ3NFX2YEKQXSF3J,41,1,3,1.0,0,0,33,1,3,1.0,asocial
01JVTTB7B9EZ3NFX2YEKQXSF3J,41,2,3,1.0,0,0,3,0,3,1.0,asocial
01JVTTB7B9EZ3NFX2YEKQXSF3J,41,3,3,1.0,35,3,218,23,3,1.0,asocial
01JVTTB7B9EZ3NFX2YEKQXSF3J,41,4,3,1.0,0,0,1,0,3,1.0,asocial
01JVTTB7B9EZ3NFX2YEKQXSF3J,41,5,3,1.0,0,0,2,0,3,1.0,asocial
01JVTTB7B9EZ3NFX2YEKQXSF3J,41,6,3,1.0,0,0,79,7,3,1.0,asocial
01JVTTB7B9EZ3NFX2YEKQXSF3J,41,7,3,1.0,2,0,5,0,3,1.0,asocial
01JVTTB7B9EZ3NFX2YEKQXSF3J,41,8,3,1.0,0,0,21,3,3,1.0,asocial
01JVTTB7B9EZ3NFX2YEKQXSF3J,41,9,3,1.0,0,0,2,0,3,1.0,asocial
01JVTTB7B9EZ3NFX2YEKQXSF3J,42,0,3,1.0,0,0,2,0,3,1.0,asocial
01JVTTB7B9EZ3NFX2YEKQXSF3J,42,1,3,1.0,0,0,35,1,3,1.0,asocial
01JVTTB7B9EZ3NFX2YEKQXSF3J,42,2,3,1.0,0,0,3,0,3,1.0,asocial
01JVTTB7B9EZ3NFX2YEKQXSF3J,42,3,3,1.0,36,3,222,24,3,1.0,asocial
01JVTTB7B9EZ3NFX2YEKQXSF3J,42,4,3,1.0,0,0,1,0,3,1.0,asocial
01JVTTB7B9EZ3NFX2YEKQXSF3J,42,5,3,1.0,0,0,2,0,3,1.0,asocial
01JVTTB7B9EZ3NFX2YEKQXSF3J,42,6,3,1.0,0,0,81,7,3,1.0,asocial
01JVTTB7B9EZ3NFX2YEKQXSF3J,42,7,3,1.0,2,0,6,0,3,1.0,asocial
01JVTTB7B9EZ3NFX2YEKQXSF3J,42,8,3,1.0,0,0,21,3,3,1.0,asocial
01JVTTB7B9EZ3NFX2YEKQXSF3J,42,9,3,1.0,0,0,2,0,3,1.0,asocial
01JVTTB7B9EZ3NFX2YEKQXSF3J,43,0,3,1.0,0,0,2,0,3,1.0,asocial
01JVTTB7B9EZ3NFX2YEKQXSF3J,43,1,3,1.0,0,0,37,1,3,1.0,asocial
01JVTTB7B9EZ3NFX2YEKQXSF3J,43,2,3,1.0,0,0,3,0,3,1.0,asocial
01JVTTB7B9EZ3NFX2YEKQXSF3J,43,3,3,1.0,37,3,227,24,3,1.0,asocial
01JVTTB7B9EZ3NFX2YEKQXSF3J,43,4,3,1.0,0,0,1,0,3,1.0,asocial
01JVTTB7B9EZ3NFX2YEKQXSF3J,43,5,3,1.0,0,0,2,0,3,1.0,asocial
01JVTTB7B9EZ3NFX2YEKQXSF3J,43,6,3,1.0,0,0,83,7,3,1.0,asocial
01JVTTB7B9EZ3NFX2YEKQXSF3J,43,7,3,1.0,2,0,7,0,3,1.0,asocial
01JVTTB7B9EZ3NFX2YEKQXSF3J,43,8,3,1.0,0,0,21,3,3,1.0,asocial
01JVTTB7B9EZ3NFX2YEKQXSF3J,43,9,3,1.0,0,0,2,0,3,1.0,asocial
01JVTTB7B9EZ3NFX2YEKQXSF3J,44,0,3,1.0,0,0,2,0,3,1.0,asocial
01JVTTB7B9EZ3NFX2YEKQXSF3J,44,1,3,1.0,0,0,39,1,3,1.0,asocial
01JVTTB7B9EZ3NFX2YEKQXSF3J,44,2,3,1.0,0,0,3,0,3,1.0,asocial
01JVTTB7B9EZ3NFX2YEKQXSF3J,44,3,3,1.0,38,3,231,25,3,1.0,asocial
01JVTTB7B9EZ3NFX2YEKQXSF3J,44,4,3,1.0,0,0,1,0,3,1.0,asocial
01JVTTB7B9EZ3NFX2YEKQXSF3J,44,5,3,1.0,0,0,2,0,3,1.0,asocial
01JVTTB7B9EZ3NFX2YEKQXSF3J,44,6,3,1.0,0,0,85,7,3,1.0,asocial
01JVTTB7B9EZ3NFX2YEKQXSF3J,44,7,3,1.0,2,0,8,0,3,1.0,asocial
01JVTTB7B9EZ3NFX2YEKQXSF3J,44,8,3,1.0,0,0,21,3,3,1.0,asocial
01JVTTB7B9EZ3NFX2YEKQXSF3J,44,9,3,1.0,0,0,2,0,3,1.0,asocial
01JVTTB7B9EZ3NFX2YEKQXSF3J,45,0,3,1.0,0,0,2,0,3,1.0,asocial
01JVTTB7B9EZ3NFX2YEKQXSF3J,45,1,3,1.0,0,0,41,1,3,1.0,asocial
01JVTTB7B9EZ3NFX2YEKQXSF3J,45,2,3,1.0,0,0,3,0,3,1.0,asocial
01JVTTB7B9EZ3NFX2YEKQXSF3J,45,3,3,1.0,39,3,237,25,3,1.0,asocial
01JVTTB7B9EZ3NFX2YEKQXSF3J,45,4,3,1.0,0,0,1,0,3,1.0,asocial
01JVTTB7B9EZ3NFX2YEKQXSF3J,45,5,3,1.0,0,0,2,0,3,1.0,asocial
01JVTTB7B9EZ3NFX2YEKQXSF3J,45,6,3,1.0,0,0,86,7,3,1.0,asocial
01JVTTB7B9EZ3NFX2YEKQXSF3J,45,7,3,1.0,2,0,9,0,3,1.0,asocial
01JVTTB7B9EZ3NFX2YEKQXSF3J,45,8,3,1.0,0,0,21,3,3,1.0,asocial
01JVTTB7B9EZ3NFX2YEKQXSF3J,45,9,3,1.0,0,0,2,0,3,1.0,asocial
01JVTTB7B9EZ3NFX2YEKQXSF3J,46,0,3,1.0,0,0,2,0,3,1.0,asocial
01JVTTB7B9EZ3NFX2YEKQXSF3J,46,1,3,1.0,0,0,43,1,3,1.0,asocial
01JVTTB7B9EZ3NFX2YEKQXSF3J,46,2,3,1.0,0,0,3,0,3,1.0,asocial
01JVTTB7B9EZ3NFX2YEKQXSF3J,46,3,3,1.0,40,3,242,25,3,1.0,asocial
01JVTTB7B9EZ3NFX2YEKQXSF3J,46,4,3,1.0,0,0,1,0,3,1.0,asocial
01JVTTB7B9EZ3NFX2YEKQXSF3J,46,5,3,1.0,0,0,2,0,3,1.0,asocial
01JVTTB7B9EZ3NFX2YEKQXSF3J,46,6,3,1.0,0,0,88,7,3,1.0,asocial
01JVTTB7B9EZ3NFX2YEKQXSF3J,46,7,3,1.0,2,0,10,0,3,1.0,asocial
01JVTTB7B9EZ3NFX2YEKQXSF3J,46,8,3,1.0,0,0,21,3,3,1.0,asocial
01JVTTB7B9EZ3NFX2YEKQXSF3J,46,9,3,1.0,0,0,2,0,3,1.0,asocial
01JVTTB7B9EZ3NFX2YEKQXSF3J,47,0,3,1.0,0,0,2,0,3,1.0,asocial
01JVTTB7B9EZ3NFX2YEKQXSF3J,47,1,3,1.0,0,0,45,1,3,1.0,asocial
01JVTTB7B9EZ3NFX2YEKQXSF3J,47,2,3,1.0,0,0,3,0,3,1.0,asocial
01JVTTB7B9EZ3NFX2YEKQXSF3J,47,3,3,1.0,41,3,246,26,3,1.0,asocial
01JVTTB7B9EZ3NFX2YEKQXSF3J,47,4,3,1.0,0,0,1,0,3,1.0,asocial
01JVTTB7B9EZ3NFX2YEKQXSF3J,47,5,3,1.0,0,0,2,0,3,1.0,asocial
01JVTTB7B9EZ3NFX2YEKQXSF3J,47,6,3,1.0,0,0,90,7,3,1.0,asocial
01JVTTB7B9EZ3NFX2YEKQXSF3J,47,7,3,1.0,2,0,11,0,3,1.0,asocial
01JVTTB7B9EZ3NFX2YEKQXSF3J,47,8,3,1.0,0,0,21,3,3,1.0,asocial
01JVTTB7B9EZ3NFX2YEKQXSF3J,47,9,3,1.0,0,0,2,0,3,1.0,asocial
01JVTTB7B9EZ3NFX2YEKQXSF3J,48,0,3,1.0,0,0,2,0,3,1.0,asocial
01JVTTB7B9EZ3NFX2YEKQXSF3J,48,1,3,1.0,0,0,47,1,3,1.0,asocial
01JVTTB7B9EZ3NFX2YEKQXSF3J,48,2,3,1.0,0,0,3,0,3,1.0,asocial
01JVTTB7B9EZ3NFX2YEKQXSF3J,48,3,3,1.0,42,3,250,27,3,1.0,asocial
01JVTTB7B9EZ3NFX2YEKQXSF3J,48,4,3,1.0,0,0,1,0,3,1.0,asocial
01JVTTB7B9EZ3NFX2YEKQXSF3J,48,5,3,1.0,0,0,2,0,3,1.0,asocial
01JVTTB7B9EZ3NFX2YEKQXSF3J,48,6,3,1.0,0,0,92,7,3,1.0,asocial
01JVTTB7B9EZ3NFX2YEKQXSF3J,48,7,3,1.0,2,0,12,0,3,1.0,asocial
01JVTTB7B9EZ3NFX2YEKQXSF3J,48,8,3,1.0,0,0,21,3,3,1.0,asocial
01JVTTB7B9EZ3NFX2YEKQXSF3J,48,9,3,1.0,0,0,2,0,3,1.0,asocial
01JVTTB7B9EZ3NFX2YEKQXSF3J,49,0,3,1.0,0,0,2,0,3,1.0,asocial
01JVTTB7B9EZ3NFX2YEKQXSF3J,49,1,3,1.0,0,0,48,1,3,1.0,asocial
01JVTTB7B9EZ3NFX2YEKQXSF3J,49,2,3,1.0,0,0,3,0,3,1.0,asocial
01JVTTB7B9EZ3NFX2YEKQXSF3J,49,3,3,1.0,43,3,254,28,3,1.0,asocial
01JVTTB7B9EZ3NFX2YEKQXSF3J,49,4,3,1.0,0,0,1,0,3,1.0,asocial
01JVTTB7B9EZ3NFX2YEKQXSF3J,49,5,3,1.0,0,0,2,0,3,1.0,asocial
01JVTTB7B9EZ3NFX2YEKQXSF3J,49,6,3,1.0,0,0,93,8,3,1.0,asocial
01JVTTB7B9EZ3NFX2YEKQXSF3J,49,7,3,1.0,2,0,14,0,3,1.0,asocial
01JVTTB7B9EZ3NFX2YEKQXSF3J,49,8,3,1.0,0,0,21,3,3,1.0,asocial
01JVTTB7B9EZ3NFX2YEKQXSF3J,49,9,3,1.0,0,0,2,0,3,1.0,asocial
01JVTTB7B9EZ3NFX2YEKQXSF3J,50,0,3,1.0,0,0,2,0,3,1.0,asocial
01JVTTB7B9EZ3NFX2YEKQXSF3J,50,1,3,1.0,0,0,49,1,3,1.0,asocial
01JVTTB7B9EZ3NFX2YEKQXSF3J,50,2,3,1.0,0,0,3,0,3,1.0,asocial
01JVTTB7B9EZ3NFX2YEKQXSF3J,50,3,3,1.0,44,3,257,30,3,1.0,asocial
01JVTTB7B9EZ3NFX2YEKQXSF3J,50,4,3,1.0,0,0,1,0,3,1.0,asocial
01JVTTB7B9EZ3NFX2YEKQXSF3J,50,5,3,1.0,0,0,2,0,3,1.0,asocial
01JVTTB7B9EZ3NFX2YEKQXSF3J,50,6,3,1.0,0,0,95,8,3,1.0,asocial
01JVTTB7B9EZ3NFX2YEKQXSF3J,50,7,3,1.0,2,0,16,0,3,1.0,asocial
01JVTTB7B9EZ3NFX2YEKQXSF3J,50,8,3,1.0,0,0,21,3,3,1.0,asocial
01JVTTB7B9EZ3NFX2YEKQXSF3J,50,9,3,1.0,0,0,2,0,3,1.0,asocial
01JVTTB7B9EZ3NFX2YEKQXSF3J,51,0,3,1.0,0,0,2,0,3,1.0,asocial
01JVTTB7B9EZ3NFX2YEKQXSF3J,51,1,3,1.0,0,0,51,1,3,1.0,asocial
01JVTTB7B9EZ3NFX2YEKQXSF3J,51,2,3,1.0,0,0,3,0,3,1.0,asocial
01JVTTB7B9EZ3NFX2YEKQXSF3J,51,3,3,1.0,45,3,262,31,3,1.0,asocial
01JVTTB7B9EZ3NFX2YEKQXSF3J,51,4,3,1.0,0,0,1,0,3,1.0,asocial
01JVTTB7B9EZ3NFX2YEKQXSF3J,51,5,3,1.0,0,0,2,0,3,1.0,asocial
01JVTTB7B9EZ3NFX2YEKQXSF3J,51,6,3,1.0,0,0,96,8,3,1.0,asocial
01JVTTB7B9EZ3NFX2YEKQXSF3J,51,7,3,1.0,2,0,17,0,3,1.0,asocial
01JVTTB7B9EZ3NFX2YEKQXSF3J,51,8,3,1.0,0,0,21,3,3,1.0,asocial
01JVTTB7B9EZ3NFX2YEKQXSF3J,51,9,3,1.0,0,0,2,0,3,1.0,asocial
01JVTTBK0ZW8NB94CW4DEZCCDS,1,0,9,1.0,0,0,0,0,-1,,asocial
01JVTTBK0ZW8NB94CW4DEZCCDS,1,1,9,1.0,0,0,0,0,-1,,asocial
01JVTTBK0ZW8NB94CW4DEZCCDS,1,2,9,1.0,0,0,0,0,-1,,asocial
01JVTTBK0ZW8NB94CW4DEZCCDS,1,3,9,1.0,0,0,0,0,-1,,asocial
01JVTTBK0ZW8NB94CW4DEZCCDS,1,4,9,1.0,0,0,0,0,-1,,asocial
01JVTTBK0ZW8NB94CW4DEZCCDS,1,5,9,1.0,0,0,0,0,-1,,asocial
01JVTTBK0ZW8NB94CW4DEZCCDS,1,6,9,1.0,0,0,0,0,-1,,asocial
01JVTTBK0ZW8NB94CW4DEZCCDS,1,7,9,1.0,0,0,0,0,-1,,asocial
01JVTTBK0ZW8NB94CW4DEZCCDS,1,8,9,1.0,0,0,0,0,-1,,asocial
01JVTTBK0ZW8NB94CW4DEZCCDS,1,9,9,1.0,0,0,0,0,-1,,asocial
01JVTTBK0ZW8NB94CW4DEZCCDS,2,0,9,1.0,0,0,1,0,9,1.0,asocial
01JVTTBK0ZW8NB94CW4DEZCCDS,2,1,9,1.0,0,0,1,0,9,1.0,asocial
01JVTTBK0ZW8NB94CW4DEZCCDS,2,2,9,1.0,0,0,1,0,9,1.0,asocial
01JVTTBK0ZW8NB94CW4DEZCCDS,2,3,9,1.0,0,0,1,0,9,1.0,asocial
01JVTTBK0ZW8NB94CW4DEZCCDS,2,4,9,1.0,0,0,1,0,9,1.0,asocial
01JVTTBK0ZW8NB94CW4DEZCCDS,2,5,9,1.0,0,0,1,0,9,1.0,asocial
01JVTTBK0ZW8NB94CW4DEZCCDS,2,6,9,1.0,0,0,1,0,9,1.0,asocial
01JVTTBK0ZW8NB94CW4DEZCCDS,2,7,9,1.0,0,0,1,0,9,1.0,asocial
01JVTTBK0ZW8NB94CW4DEZCCDS,2,8,9,1.0,0,0,1,0,9,1.0,asocial
01JVTTBK0ZW8NB94CW4DEZCCDS,2,9,9,1.0,1,0,1,0,9,1.0,asocial
01JVTTBK0ZW8NB94CW4DEZCCDS,3,0,8,1.0,0,0,2,0,9,1.0,asocial
01JVTTBK0ZW8NB94CW4DEZCCDS,3,1,8,1.0,0,0,2,0,9,1.0,asocial
01JVTTBK0ZW8NB94CW4DEZCCDS,3,2,8,1.0,0,0,1,0,9,1.0,asocial
01JVTTBK0ZW8NB94CW4DEZCCDS,3,3,8,1.0,0,0,3,0,9,1.0,asocial
01JVTTBK0ZW8NB94CW4DEZCCDS,3,4,8,1.0,0,0,1,0,9,1.0,asocial
01JVTTBK0ZW8NB94CW4DEZCCDS,3,5,8,1.0,0,0,2,0,9,1.0,asocial
01JVTTBK0ZW8NB94CW4DEZCCDS,3,6,8,1.0,0,0,3,0,9,1.0,asocial
01JVTTBK0ZW8NB94CW4DEZCCDS,3,7,8,1.0,0,0,2,0,9,1.0,asocial
01JVTTBK0ZW8NB94CW4DEZCCDS,3,8,8,1.0,0,0,2,0,9,1.0,asocial
01JVTTBK0ZW8NB94CW4DEZCCDS,3,9,8,1.0,2,0,2,0,9,1.0,asocial
01JVTTBK0ZW8NB94CW4DEZCCDS,4,0,8,1.0,0,0,2,0,8,1.0,asocial
01JVTTBK0ZW8NB94CW4DEZCCDS,4,1,8,1.0,0,0,2,0,8,1.0,asocial
01JVTTBK0ZW8NB94CW4DEZCCDS,4,2,8,1.0,0,0,1,0,8,1.0,asocial
01JVTTBK0ZW8NB94CW4DEZCCDS,4,3,8,1.0,0,0,9,0,8,1.0,asocial
01JVTTBK0ZW8NB94CW4DEZCCDS,4,4,8,1.0,0,0,1,0,8,1.0,asocial
01JVTTBK0ZW8NB94CW4DEZCCDS,4,5,8,1.0,0,0,2,0,8,1.0,asocial
01JVTTBK0ZW8NB94CW4DEZCCDS,4,6,8,1.0,0,0,6,0,8,1.0,asocial
01JVTTBK0ZW8NB94CW4DEZCCDS,4,7,8,1.0,0,0,2,0,8,1.0,asocial
01JVTTBK0ZW8NB94CW4DEZCCDS,4,8,8,1.0,1,0,3,0,8,1.0,asocial
01JVTTBK0ZW8NB94CW4DEZCCDS,4,9,8,1.0,2,0,2,0,8,1.0,asocial
01JVTTBK0ZW8NB94CW4DEZCCDS,5,0,6,1.0,0,0,2,0,8,1.0,asocial
01JVTTBK0ZW8NB94CW4DEZCCDS,5,1,6,1.0,0,0,2,0,8,1.0,asocial
01JVTTBK0ZW8NB94CW4DEZCCDS,5,2,6,1.0,0,0,1,0,8,1.0,asocial
01JVTTBK0ZW8NB94CW4DEZCCDS,5,3,6,1.0,0,0,18,0,8,1.0,asocial
01JVTTBK0ZW8NB94CW4DEZCCDS,5,4,6,1.0,0,0,1,0,8,1.0,asocial
01JVTTBK0ZW8NB94CW4DEZCCDS,5,5,6,1.0,0,0,2,0,8,1.0,asocial
01JVTTBK0ZW8NB94CW4DEZCCDS,5,6,6,1.0,0,0,6,0,8,1.0,asocial
01JVTTBK0ZW8NB94CW4DEZCCDS,5,7,6,1.0,0,0,2,0,8,1.0,asocial
01JVTTBK0ZW8NB94CW4DEZCCDS,5,8,6,1.0,2,0,4,0,8,1.0,asocial
01JVTTBK0ZW8NB94CW4DEZCCDS,5,9,6,1.0,2,0,2,0,8,1.0,asocial
01JVTTBK0ZW8NB94CW4DEZCCDS,6,0,6,1.0,0,0,2,0,6,1.0,asocial
01JVTTBK0ZW8NB94CW4DEZCCDS,6,1,6,1.0,0,0,2,0,6,1.0,asocial
01JVTTBK0ZW8NB94CW4DEZCCDS,6,2,6,1.0,0,0,1,0,6,1.0,asocial
01JVTTBK0ZW8NB94CW4DEZCCDS,6,3,6,1.0,0,0,25,2,6,1.0,asocial
01JVTTBK0ZW8NB94CW4DEZCCDS,6,4,6,1.0,0,0,1,0,6,1.0,asocial
01JVTTBK0ZW8NB94CW4DEZCCDS,6,5,6,1.0,0,0,2,0,6,1.0,asocial
01JVTTBK0ZW8NB94CW4DEZCCDS,6,6,6,1.0,1,0,7,0,6,1.0,asocial
01JVTTBK0ZW8NB94CW4DEZCCDS,6,7,6,1.0,0,0,2,0,6,1.0,asocial
01JVTTBK0ZW8NB94CW4DEZCCDS,6,8,6,1.0,2,0,4,0,6,1.0,asocial
01JVTTBK0ZW8NB94CW4DEZCCDS,6,9,6,1.0,2,0,2,0,6,1.0,asocial
01JVTTBK0ZW8NB94CW4DEZCCDS,7,0,6,1.0,0,0,2,0,6,1.0,asocial
01JVTTBK0ZW8NB94CW4DEZCCDS,7,1,6,1.0,0,0,2,0,6,1.0,asocial
01JVTTBK0ZW8NB94CW4DEZCCDS,7,2,6,1.0,0,0,1,0,6,1.0,asocial
01JVTTBK0ZW8NB94CW4DEZCCDS,7,3,6,1.0,0,0,32,4,6,1.0,asocial
01JVTTBK0ZW8NB94CW4DEZCCDS,7,4,6,1.0,0,0,1,0,6,1.0,asocial
01JVTTBK0ZW8NB94CW4DEZCCDS,7,5,6,1.0,0,0,2,0,6,1.0,asocial
01JVTTBK0ZW8NB94CW4DEZCCDS,7,6,6,1.0,2,0,8,0,6,1.0,asocial
01JVTTBK0ZW8NB94CW4DEZCCDS,7,7,6,1.0,0,0,2,0,6,1.0,asocial
01JVTTBK0ZW8NB94CW4DEZCCDS,7,8,6,1.0,2,0,4,0,6,1.0,asocial
01JVTTBK0ZW8NB94CW4DEZCCDS,7,9,6,1.0,2,0,2,0,6,1.0,asocial
01JVTTBK0ZW8NB94CW4DEZCCDS,8,0,6,1.0,0,0,2,0,6,1.0,asocial
01JVTTBK0ZW8NB94CW4DEZCCDS,8,1,6,1.0,0,0,2,0,6,1.0,asocial
01JVTTBK0ZW8NB94CW4DEZCCDS,8,2,6,1.0,0,0,1,0,6,1.0,asocial
01JVTTBK0ZW8NB94CW4DEZCCDS,8,3,6,1.0,0,0,38,4,6,1.0,asocial
01JVTTBK0ZW8NB94CW4DEZCCDS,8,4,6,1.0,0,0,1,0,6,1.0,asocial
01JVTTBK0ZW8NB94CW4DEZCCDS,8,5,6,1.0,0,0,2,0,6,1.0,asocial
01JVTTBK0ZW8NB94CW4DEZCCDS,8,6,6,1.0,3,0,12,0,6,1.0,asocial
01JVTTBK0ZW8NB94CW4DEZCCDS,8,7,6,1.0,0,0,2,0,6,1.0,asocial
01JVTTBK0ZW8NB94CW4DEZCCDS,8,8,6,1.0,2,0,4,0,6,1.0,asocial
01JVTTBK0ZW8NB94CW4DEZCCDS,8,9,6,1.0,2,0,2,0,6,1.0,asocial
01JVTTBK0ZW8NB94CW4DEZCCDS,9,0,6,1.0,0,0,2,0,6,1.0,asocial
01JVTTBK0ZW8NB94CW4DEZCCDS,9,1,6,1.0,0,0,2,0,6,1.0,asocial
01JVTTBK0ZW8NB94CW4DEZCCDS,9,2,6,1.0,0,0,1,0,6,1.0,asocial
01JVTTBK0ZW8NB94CW4DEZCCDS,9,3,6,1.0,0,0,45,4,6,1.0,asocial
01JVTTBK0ZW8NB94CW4DEZCCDS,9,4,6,1.0,0,0,1,0,6,1.0,asocial
01JVTTBK0ZW8NB94CW4DEZCCDS,9,5,6,1.0,0,0,2,0,6,1.0,asocial
01JVTTBK0ZW8NB94CW4DEZCCDS,9,6,6,1.0,4,0,15,0,6,1.0,asocial
01JVTTBK0ZW8NB94CW4DEZCCDS,9,7,6,1.0,0,0,2,0,6,1.0,asocial
01JVTTBK0ZW8NB94CW4DEZCCDS,9,8,6,1.0,2,0,4,0,6,1.0,asocial
01JVTTBK0ZW8NB94CW4DEZCCDS,9,9,6,1.0,2,0,2,0,6,1.0,asocial
01JVTTBK0ZW8NB94CW4DEZCCDS,10,0,6,1.0,0,0,2,0,6,1.0,asocial
01JVTTBK0ZW8NB94CW4DEZCCDS,10,1,6,1.0,0,0,2,0,6,1.0,asocial
01JVTTBK0ZW8NB94CW4DEZCCDS,10,2,6,1.0,0,0,1,0,6,1.0,asocial
01JVTTBK0ZW8NB94CW4DEZCCDS,10,3,6,1.0,0,0,52,4,6,1.0,asocial
01JVTTBK0ZW8NB94CW4DEZCCDS,10,4,6,1.0,0,0,1,0,6,1.0,asocial
01JVTTBK0ZW8NB94CW4DEZCCDS,10,5,6,1.0,0,0,2,0,6,1.0,asocial
01JVTTBK0ZW8NB94CW4DEZCCDS,10,6,6,1.0,5,0,18,0,6,1.0,asocial
01JVTTBK0ZW8NB94CW4DEZCCDS,10,7,6,1.0,0,0,2,0,6,1.0,asocial
01JVTTBK0ZW8NB94CW4DEZCCDS,10,8,6,1.0,2,0,4,0,6,1.0,asocial
01JVTTBK0ZW8NB94CW4DEZCCDS,10,9,6,1.0,2,0,2,0,6,1.0,asocial
01JVTTBK0ZW8NB94CW4DEZCCDS,11,0,6,0.0,0,0,2,0,6,1.0,asocial
01JVTTBK0ZW8NB94CW4DEZCCDS,11,1,6,0.0,0,0,2,0,6,1.0,asocial
01JVTTBK0ZW8NB94CW4DEZCCDS,11,2,6,0.0,0,0,1,0,6,1.0,asocial
01JVTTBK0ZW8NB94CW4DEZCCDS,11,3,6,0.0,0,0,57,5,6,1.0,asocial
01JVTTBK0ZW8NB94CW4DEZCCDS,11,4,6,0.0,0,0,1,0,6,1.0,asocial
01JVTTBK0ZW8NB94CW4DEZCCDS,11,5,6,0.0,0,0,2,0,6,1.0,asocial
01JVTTBK0ZW8NB94CW4DEZCCDS,11,6,6,0.0,6,0,22,0,6,1.0,asocial
01JVTTBK0ZW8NB94CW4DEZCCDS,11,7,6,0.0,0,0,2,0,6,1.0,asocial
01JVTTBK0ZW8NB94CW4DEZCCDS,11,8,6,0.0,2,0,4,0,6,1.0,asocial
01JVTTBK0ZW8NB94CW4DEZCCDS,11,9,6,0.0,2,0,2,0,6,1.0,asocial
01JVTTBK0ZW8NB94CW4DEZCCDS,12,0,6,1.0,0,0,2,0,6,0.0,asocial
01JVTTBK0ZW8NB94CW4DEZCCDS,12,1,6,1.0,0,0,2,0,6,0.0,asocial
01JVTTBK0ZW8NB94CW4DEZCCDS,12,2,6,1.0,0,0,1,0,6,0.0,asocial
01JVTTBK0ZW8NB94CW4DEZCCDS,12,3,6,1.0,0,0,62,6,6,0.0,asocial
01JVTTBK0ZW8NB94CW4DEZCCDS,12,4,6,1.0,0,0,1,0,6,0.0,asocial
01JVTTBK0ZW8NB94CW4DEZCCDS,12,5,6,1.0,0,0,2,0,6,0.0,asocial
01JVTTBK0ZW8NB94CW4DEZCCDS,12,6,6,1.0,6,1,25,1,6,0.0,asocial
01JVTTBK0ZW8NB94CW4DEZCCDS,12,7,6,1.0,0,0,2,0,6,0.0,asocial
01JVTTBK0ZW8NB94CW4DEZCCDS,12,8,6,1.0,2,0,4,0,6,0.0,asocial
01JVTTBK0ZW8NB94CW4DEZCCDS,12,9,6,1.0,2,0,2,0,6,0.0,asocial
01JVTTBK0ZW8NB94CW4DEZCCDS,13,0,6,1.0,0,0,2,0,6,1.0,asocial
01JVTTBK0ZW8NB94CW4DEZCCDS,13,1,6,1.0,0,0,2,0,6,1.0,asocial
01JVTTBK0ZW8NB94CW4DEZCCDS,13,2,6,1.0,0,0,1,0,6,1.0,asocial
01JVTTBK0ZW8NB94CW4DEZCCDS,13,3,6,1.0,0,0,68,6,6,1.0,asocial
01JVTTBK0ZW8NB94CW4DEZCCDS,13,4,6,1.0,0,0,1,0,6,1.0,asocial
01JVTTBK0ZW8NB94CW4DEZCCDS,13,5,6,1.0,0,0,2,0,6,1.0,asocial
01JVTTBK0ZW8NB94CW4DEZCCDS,13,6,6,1.0,7,1,29,1,6,1.0,asocial
01JVTTBK0ZW8NB94CW4DEZCCDS,13,7,6,1.0,0,0,2,0,6,1.0,asocial
01JVTTBK0ZW8NB94CW4DEZCCDS,13,8,6,1.0,2,0,4,0,6,1.0,asocial
01JVTTBK0ZW8NB94CW4DEZCCDS,13,9,6,1.0,2,0,2,0,6,1.0,asocial
01JVTTBK0ZW8NB94CW4DEZCCDS,14,0,6,1.0,0,0,2,0,6,1.0,asocial
01JVTTBK0ZW8NB94CW4DEZCCDS,14,1,6,1.0,0,0,2,0,6,1.0,asocial
01JVTTBK0ZW8NB94CW4DEZCCDS,14,2,6,1.0,0,0,1,0,6,1.0,asocial
01JVTTBK0ZW8NB94CW4DEZCCDS,14,3,6,1.0,0,0,73,7,6,1.0,asocial
01JVTTBK0ZW8NB94CW4DEZCCDS,14,4,6,1.0,0,0,1,0,6,1.0,asocial
01JVTTBK0ZW8NB94CW4DEZCCDS,14,5,6,1.0,0,0,2,0,6,1.0,asocial
01JVTTBK0ZW8NB94CW4DEZCCDS,14,6,6,1.0,8,1,32,2,6,1.0,asocial
01JVTTBK0ZW8NB94CW4DEZCCDS,14,7,6,1.0,0,0,2,0,6,1.0,asocial
01JVTTBK0ZW8NB94CW4DEZCCDS,14,8,6,1.0,2,0,4,0,6,1.0,asocial
01JVTTBK0ZW8NB94CW4DEZCCDS,14,9,6,1.0,2,0,2,0,6,1.0,asocial
01JVTTBK0ZW8NB94CW4DEZCCDS,15,0,6,1.0,0,0,2,0,6,1.0,asocial
01JVTTBK0ZW8NB94CW4DEZCCDS,15,1,6,1.0,0,0,2,0,6,1.0,asocial
01JVTTBK0ZW8NB94CW4DEZCCDS,15,2,6,1.0,0,0,1,0,6,1.0,asocial
01JVTTBK0ZW8NB94CW4DEZCCDS,15,3,6,1.0,0,0,78,7,6,1.0,asocial
01JVTTBK0ZW8NB94CW4DEZCCDS,15,4,6,1.0,0,0,1,0,6,1.0,asocial
01JVTTBK0ZW8NB94CW4DEZCCDS,15,5,6,1.0,0,0,2,0,6,1.0,asocial
01JVTTBK0ZW8NB94CW4DEZCCDS,15,6,6,1.0,9,1,36,2,6,1.0,asocial
01JVTTBK0ZW8NB94CW4DEZCCDS,15,7,6,1.0,0,0,2,0,6,1.0,asocial
01JVTTBK0ZW8NB94CW4DEZCCDS,15,8,6,1.0,2,0,5,0,6,1.0,asocial
01JVTTBK0ZW8NB94CW4DEZCCDS,15,9,6,1.0,2,0,2,0,6,1.0,asocial
01JVTTBK0ZW8NB94CW4DEZCCDS,16,0,6,0.0,0,0,2,0,6,1.0,asocial
01JVTTBK0ZW8NB94CW4DEZCCDS,16,1,6,0.0,0,0,2,0,6,1.0,asocial
01JVTTBK0ZW8NB94CW4DEZCCDS,16,2,6,0.0,0,0,1,0,6,1.0,asocial
01JVTTBK0ZW8NB94CW4DEZCCDS,16,3,6,0.0,0,0,83,7,6,1.0,asocial
01JVTTBK0ZW8NB94CW4DEZCCDS,16,4,6,0.0,0,0,1,0,6,1.0,asocial
01JVTTBK0ZW8NB94CW4DEZCCDS,16,5,6,0.0,0,0,2,0,6,1.0,asocial
01JVTTBK0ZW8NB94CW4DEZCCDS,16,6,6,0.0,10,1,40,2,6,1.0,asocial
01JVTTBK0ZW8NB94CW4DEZCCDS,16,7,6,0.0,0,0,2,0,6,1.0,asocial
01JVTTBK0ZW8NB94CW4DEZCCDS,16,8,6,0.0,2,0,6,0,6,1.0,asocial
01JVTTBK0ZW8NB94CW4DEZCCDS,16,9,6,0.0,2,0,2,0,6,1.0,asocial
01JVTTBK0ZW8NB94CW4DEZCCDS,17,0,6,1.0,0,0,2,0,6,0.0,asocial
01JVTTBK0ZW8NB94CW4DEZCCDS,17,1,6,1.0,0,0,2,0,6,0.0,asocial
01JVTTBK0ZW8NB94CW4DEZCCDS,17,2,6,1.0,0,0,1,0,6,0.0,asocial
01JVTTBK0ZW8NB94CW4DEZCCDS,17,3,6,1.0,0,0,89,7,6,0.0,asocial
01JVTTBK0ZW8NB94CW4DEZCCDS,17,4,6,1.0,0,0,1,0,6,0.0,asocial
01JVTTBK0ZW8NB94CW4DEZCCDS,17,5,6,1.0,0,0,2,0,6,0.0,asocial
01JVTTBK0ZW8NB94CW4DEZCCDS,17,6,6,1.0,10,2,43,3,6,0.0,asocial
01JVTTBK0ZW8NB94CW4DEZCCDS,17,7,6,1.0,0,0,2,0,6,0.0,asocial
01JVTTBK0ZW8NB94CW4DEZCCDS,17,8,6,1.0,2,0,6,0,6,0.0,asocial
01JVTTBK0ZW8NB94CW4DEZCCDS,17,9,6,1.0,2,0,2,0,6,0.0,asocial
01JVTTBK0ZW8NB94CW4DEZCCDS,18,0,6,0.0,0,0,2,0,6,1.0,asocial
01JVTTBK0ZW8NB94CW4DEZCCDS,18,1,6,0.0,0,0,2,0,6,1.0,asocial
01JVTTBK0ZW8NB94CW4DEZCCDS,18,2,6,0.0,0,0,1,0,6,1.0,asocial
01JVTTBK0ZW8NB94CW4DEZCCDS,18,3,6,0.0,0,0,96,7,6,1.0,asocial
01JVTTBK0ZW8NB94CW4DEZCCDS,18,4,6,0.0,0,0,1,0,6,1.0,asocial
01JVTTBK0ZW8NB94CW4DEZCCDS,18,5,6,0.0,0,0,2,0,6,1.0,asocial
01JVTTBK0ZW8NB94CW4DEZCCDS,18,6,6,0.0,11,2,45,3,6,1.0,asocial
01JVTTBK0ZW8NB94CW4DEZCCDS,18,7,6,0.0,0,0,2,0,6,1.0,asocial
01JVTTBK0ZW8NB94CW4DEZCCDS,18,8,6,0.0,2,0,7,0,6,1.0,asocial
01JVTTBK0ZW8NB94CW4DEZCCDS,18,9,6,0.0,2,0,2,0,6,1.0,asocial
01JVTTBK0ZW8NB94CW4DEZCCDS,19,0,6,1.0,0,0,2,0,6,0.0,asocial
01JVTTBK0ZW8NB94CW4DEZCCDS,19,1,6,1.0,0,0,2,0,6,0.0,asocial
01JVTTBK0ZW8NB94CW4DEZCCDS,19,2,6,1.0,0,0,1,0,6,0.0,asocial
01JVTTBK0ZW8NB94CW4DEZCCDS,19,3,6,1.0,0,0,103,8,6,0.0,asocial
01JVTTBK0ZW8NB94CW4DEZCCDS,19,4,6,1.0,0,0,1,0,6,0.0,asocial
01JVTTBK0ZW8NB94CW4DEZCCDS,19,5,6,1.0,0,0,2,0,6,0.0,asocial
01JVTTBK0ZW8NB94CW4DEZCCDS,19,6,6,1.0,11,3,45,4,6,0.0,asocial
01JVTTBK0ZW8NB94CW4DEZCCDS,19,7,6,1.0,0,0,2,0,6,0.0,asocial
01JVTTBK0ZW8NB94CW4DEZCCDS,19,8,6,1.0,2,0,8,0,6,0.0,asocial
01JVTTBK0ZW8NB94CW4DEZCCDS,19,9,6,1.0,2,0,2,0,6,0.0,asocial
01JVTTBK0ZW8NB94CW4DEZCCDS,20,0,6,1.0,0,0,2,0,6,1.0,asocial
01JVTTBK0ZW8NB94CW4DEZCCDS,20,1,6,1.0,0,0,2,0,6,1.0,asocial
01JVTTBK0ZW8NB94CW4DEZCCDS,20,2,6,1.0,0,0,1,0,6,1.0,asocial
01JVTTBK0ZW8NB94CW4DEZCCDS,20,3,6,1.0,0,0,110,8,6,1.0,asocial
01JVTTBK0ZW8NB94CW4DEZCCDS,20,4,6,1.0,0,0,1,0,6,1.0,asocial
01JVTTBK0ZW8NB94CW4DEZCCDS,20,5,6,1.0,0,0,2,0,6,1.0,asocial
01JVTTBK0ZW8NB94CW4DEZCCDS,20,6,6,1.0,12,3,46,4,6,1.0,asocial
01JVTTBK0ZW8NB94CW4DEZCCDS,20,7,6,1.0,0,0,2,0,6,1.0,asocial
01JVTTBK0ZW8NB94CW4DEZCCDS,20,8,6,1.0,2,0,10,0,6,1.0,asocial
01JVTTBK0ZW8NB94CW4DEZCCDS,20,9,6,1.0,2,0,2,0,6,1.0,asocial
01JVTTBK0ZW8NB94CW4DEZCCDS,21,0,6,1.0,0,0,2,0,6,1.0,asocial
01JVTTBK0ZW8NB94CW4DEZCCDS,21,1,6,1.0,0,0,2,0,6,1.0,asocial
01JVTTBK0ZW8NB94CW4DEZCCDS,21,2,6,1.0,0,0,1,0,6,1.0,asocial
01JVTTBK0ZW8NB94CW4DEZCCDS,21,3,6,1.0,0,0,116,8,6,1.0,asocial
01JVTTBK0ZW8NB94CW4DEZCCDS,21,4,6,1.0,0,0,1,0,6,1.0,asocial
01JVTTBK0ZW8NB94CW4DEZCCDS,21,5,6,1.0,0,0,2,0,6,1.0,asocial
01JVTTBK0ZW8NB94CW4DEZCCDS,21,6,6,1.0,13,3,47,4,6,1.0,asocial
01JVTTBK0ZW8NB94CW4DEZCCDS,21,7,6,1.0,0,0,2,0,6,1.0,asocial
01JVTTBK0ZW8NB94CW4DEZCCDS,21,8,6,1.0,2,0,13,0,6,1.0,asocial
01JVTTBK0ZW8NB94CW4DEZCCDS,21,9,6,1.0,2,0,2,0,6,1.0,asocial
01JVTTBK0ZW8NB94CW4DEZCCDS,22,0,6,1.0,0,0,2,0,6,1.0,asocial
01JVTTBK0ZW8NB94CW4DEZCCDS,22,1,6,1.0,0,0,2,0,6,1.0,asocial
01JVTTBK0ZW8NB94CW4DEZCCDS,22,2,6,1.0,0,0,1,0,6,1.0,asocial
01JVTTBK0ZW8NB94CW4DEZCCDS,22,3,6,1.0,0,0,121,8,6,1.0,asocial
01JVTTBK0ZW8NB94CW4DEZCCDS,22,4,6,1.0,0,0,1,0,6,1.0,asocial
01JVTTBK0ZW8NB94CW4DEZCCDS,22,5,6,1.0,0,0,2,0,6,1.0,asocial
01JVTTBK0ZW8NB94CW4DEZCCDS,22,6,6,1.0,14,3,49,4,6,1.0,asocial
01JVTTBK0ZW8NB94CW4DEZCCDS,22,7,6,1.0,0,0,2,0,6,1.0,asocial
01JVTTBK0ZW8NB94CW4DEZCCDS,22,8,6,1.0,2,0,16,0,6,1.0,asocial
01JVTTBK0ZW8NB94CW4DEZCCDS,22,9,6,1.0,2,0,2,0,6,1.0,asocial
01JVTTBK0ZW8NB94CW4DEZCCDS,23,0,6,1.0,0,0,2,0,6,1.0,asocial
01JVTTBK0ZW8NB94CW4DEZCCDS,23,1,6,1.0,0,0,2,0,6,1.0,asocial
01JVTTBK0ZW8NB94CW4DEZCCDS,23,2,6,1.0,0,0,1,0,6,1.0,asocial
01JVTTBK0ZW8NB94CW4DEZCCDS,23,3,6,1.0,0,0,127,8,6,1.0,asocial
01JVTTBK0ZW8NB94CW4DEZCCDS,23,4,6,1.0,0,0,1,0,6,1.0,asocial
01JVTTBK0ZW8NB94CW4DEZCCDS,23,5,6,1.0,0,0,2,0,6,1.0,asocial
01JVTTBK0ZW8NB94CW4DEZCCDS,23,6,6,1.0,15,3,50,4,6,1.0,asocial
01JVTTBK0ZW8NB94CW4DEZCCDS,23,7,6,1.0,0,0,2,0,6,1.0,asocial
01JVTTBK0ZW8NB94CW4DEZCCDS,23,8,6,1.0,2,0,19,0,6,1.0,asocial
01JVTTBK0ZW8NB94CW4DEZCCDS,23,9,6,1.0,2,0,2,0,6,1.0,asocial
01JVTTBK0ZW8NB94CW4DEZCCDS,24,0,6,1.0,0,0,2,0,6,1.0,asocial
01JVTTBK0ZW8NB94CW4DEZCCDS,24,1,6,1.0,0,0,2,0,6,1.0,asocial
01JVTTBK0ZW8NB94CW4DEZCCDS,24,2,6,1.0,0,0,1,0,6,1.0,asocial
01JVTTBK0ZW8NB94CW4DEZCCDS,24,3,6,1.0,0,0,132,8,6,1.0,asocial
01JVTTBK0ZW8NB94CW4DEZCCDS,24,4,6,1.0,0,0,1,0,6,1.0,asocial
01JVTTBK0ZW8NB94CW4DEZCCDS,24,5,6,1.0,0,0,2,0,6,1.0,asocial
01JVTTBK0ZW8NB94CW4DEZCCDS,24,6,6,1.0,16,3,51,4,6,1.0,asocial
01JVTTBK0ZW8NB94CW4DEZCCDS,24,7,6,1.0,0,0,2,0,6,1.0,asocial
01JVTTBK0ZW8NB94CW4DEZCCDS,24,8,6,1.0,2,0,20,3,6,1.0,asocial
01JVTTBK0ZW8NB94CW4DEZCCDS,24,9,6,1.0,2,0,2,0,6,1.0,asocial
01JVTTBK0ZW8NB94CW4DEZCCDS,25,0,6,1.0,0,0,2,0,6,1.0,asocial
01JVTTBK0ZW8NB94CW4DEZCCDS,25,1,6,1.0,0,0,3,0,6,1.0,asocial
01JVTTBK0ZW8NB94CW4DEZCCDS,25,2,6,1.0,0,0,1,0,6,1.0,asocial
01JVTTBK0ZW8NB94CW4DEZCCDS,25,3,6,1.0,0,0,138,9,6,1.0,asocial
01JVTTBK0ZW8NB94CW4DEZCCDS,25,4,6,1.0,0,0,1,0,6,1.0,asocial
01JVTTBK0ZW8NB94CW4DEZCCDS,25,5,6,1.0,0,0,2,0,6,1.0,asocial
01JVTTBK0ZW8NB94CW4DEZCCDS,25,6,6,1.0,17,3,52,4,6,1.0,asocial
01JVTTBK0ZW8NB94CW4DEZCCDS,25,7,6,1.0,0,0,2,0,6,1.0,asocial
01JVTTBK0ZW8NB94CW4DEZCCDS,25,8,6,1.0,2,0,21,3,6,1.0,asocial
01JVTTBK0ZW8NB94CW4DEZCCDS,25,9,6,1.0,2,0,2,0,6,1.0,asocial
01JVTTBK0ZW8NB94CW4DEZCCDS,26,0,6,1.0,0,0,2,0,6,1.0,asocial
01JVTTBK0ZW8NB94CW4DEZCCDS,26,1,6,1.0,0,0,4,0,6,1.0,asocial
01JVTTBK0ZW8NB94CW4DEZCCDS,26,2,6,1.0,0,0,1,0,6,1.0,asocial
01JVTTBK0ZW8NB94CW4DEZCCDS,26,3,6,1.0,0,0,144,11,6,1.0,asocial
01JVTTBK0ZW8NB94CW4DEZCCDS,26,4,6,1.0,0,0,1,0,6,1.0,asocial
01JVTTBK0ZW8NB94CW4DEZCCDS,26,5,6,1.0,0,0,2,0,6,1.0,asocial
01JVTTBK0ZW8NB94CW4DEZCCDS,26,6,6,1.0,18,3,53,4,6,1.0,asocial
01JVTTBK0ZW8NB94CW4DEZCCDS,26,7,6,1.0,0,0,2,0,6,1.0,asocial
01JVTTBK0ZW8NB94CW4DEZCCDS,26,8,6,1.0,2,0,21,3,6,1.0,asocial
01JVTTBK0ZW8NB94CW4DEZCCDS,26,9,6,1.0,2,0,2,0,6,1.0,asocial
01JVTTBK0ZW8NB94CW4DEZCCDS,27,0,6,1.0,0,0,2,0,6,1.0,asocial
01JVTTBK0ZW8NB94CW4DEZCCDS,27,1,6,1.0,0,0,4,0,6,1.0,asocial
01JVTTBK0ZW8NB94CW4DEZCCDS,27,2,6,1.0,0,0,1,0,6,1.0,asocial
01JVTTBK0ZW8NB94CW4DEZCCDS,27,3,6,1.0,0,0,148,14,6,1.0,asocial
01JVTTBK0ZW8NB94CW4DEZCCDS,27,4,6,1.0,0,0,1,0,6,1.0,asocial
01JVTTBK0ZW8NB94CW4DEZCCDS,27,5,6,1.0,0,0,2,0,6,1.0,asocial
01JVTTBK0ZW8NB94CW4DEZCCDS,27,6,6,1.0,19,3,56,4,6,1.0,asocial
01JVTTBK0ZW8NB94CW4DEZCCDS,27,7,6,1.0,0,0,2,0,6,1.0,asocial
01JVTTBK0ZW8NB94CW4DEZCCDS,27,8,6,1.0,2,0,21,3,6,1.0,asocial
01JVTTBK0ZW8NB94CW4DEZCCDS,27,9,6,1.0,2,0,2,0,6,1.0,asocial
01JVTTBK0ZW8NB94CW4DEZCCDS,28,0,6,1.0,0,0,2,0,6,1.0,asocial
01JVTTBK0ZW8NB94CW4DEZCCDS,28,1,6,1.0,0,0,5,0,6,1.0,asocial
01JVTTBK0ZW8NB94CW4DEZCCDS,28,2,6,1.0,0,0,1,0,6,1.0,asocial
01JVTTBK0ZW8NB94CW4DEZCCDS,28,3,6,1.0,0,0,153,15,6,1.0,asocial
01JVTTBK0ZW8NB94CW4DEZCCDS,28,4,6,1.0,0,0,1,0,6,1.0,asocial
01JVTTBK0ZW8NB94CW4DEZCCDS,28,5,6,1.0,0,0,2,0,6,1.0,asocial
01JVTTBK0ZW8NB94CW4DEZCCDS,28,6,6,1.0,20,3,59,4,6,1.0,asocial
01JVTTBK0ZW8NB94CW4DEZCCDS,28,7,6,1.0,0,0,2,0,6,1.0,asocial
01JVTTBK0ZW8NB94CW4DEZCCDS,28,8,6,1.0,2,0,21,3,6,1.0,asocial
01JVTTBK0ZW8NB94CW4DEZCCDS,28,9,6,1.0,2,0,2,0,6,1.0,asocial
01JVTTBK0ZW8NB94CW4DEZCCDS,29,0,6,1.0,0,0,2,0,6,1.0,asocial
01JVTTBK0ZW8NB94CW4DEZCCDS,29,1,6,1.0,0,0,6,0,6,1.0,asocial
01JVTTBK0ZW8NB94CW4DEZCCDS,29,2,6,1.0,0,0,1,0,6,1.0,asocial
01JVTTBK0ZW8NB94CW4DEZCCDS,29,3,6,1.0,0,0,158,15,6,1.0,asocial
01JVTTBK0ZW8NB94CW4DEZCCDS,29,4,6,1.0,0,0,1,0,6,1.0,asocial
01JVTTBK0ZW8NB94CW4DEZCCDS,29,5,6,1.0,0,0,2,0,6,1.0,asocial
01JVTTBK0ZW8NB94CW4DEZCCDS,29,6,6,1.0,21,3,63,4,6,1.0,asocial
01JVTTBK0ZW8NB94CW4DEZCCDS,29,7,6,1.0,0,0,2,0,6,1.0,asocial
01JVTTBK0ZW8NB94CW4DEZCCDS,29,8,6,1.0,2,0,21,3,6,1.0,asocial
01JVTTBK0ZW8NB94CW4DEZCCDS,29,9,6,1.0,2,0,2,0,6,1.0,asocial
01JVTTBK0ZW8NB94CW4DEZCCDS,30,0,6,0.0,0,0,2,0,6,1.0,asocial
01JVTTBK0ZW8NB94CW4DEZCCDS,30,1,6,0.0,0,0,7,0,6,1.0,asocial
01JVTTBK0ZW8NB94CW4DEZCCDS,30,2,6,0.0,0,0,1,0,6,1.0,asocial
01JVTTBK0ZW8NB94CW4DEZCCDS,30,3,6,0.0,0,0,163,15,6,1.0,asocial
01JVTTBK0ZW8NB94CW4DEZCCDS,30,4,6,0.0,0,0,1,0,6,1.0,asocial
01JVTTBK0ZW8NB94CW4DEZCCDS,30,5,6,0.0,0,0,2,0,6,1.0,asocial
01JVTTBK0ZW8NB94CW4DEZCCDS,30,6,6,0.0,22,3,66,5,6,1.0,asocial
01JVTTBK0ZW8NB94CW4DEZCCDS,30,7,6,0.0,0,0,2,0,6,1.0,asocial
01JVTTBK0ZW8NB94CW4DEZCCDS,30,8,6,0.0,2,0,21,3,6,1.0,asocial
01JVTTBK0ZW8NB94CW4DEZCCDS,30,9,6,0.0,2,0,2,0,6,1.0,asocial
01JVTTBK0ZW8NB94CW4DEZCCDS,31,0,6,1.0,0,0,2,0,6,0.0,asocial
01JVTTBK0ZW8NB94CW4DEZCCDS,31,1,6,1.0,0,0,9,0,6,0.0,asocial
01JVTTBK0ZW8NB94CW4DEZCCDS,31,2,6,1.0,0,0,1,0,6,0.0,asocial
01JVTTBK0ZW8NB94CW4DEZCCDS,31,3,6,1.0,0,0,167,16,6,0.0,asocial
01JVTTBK0ZW8NB94CW4DEZCCDS,31,4,6,1.0,0,0,1,0,6,0.0,asocial
01JVTTBK0ZW8NB94CW4DEZCCDS,31,5,6,1.0,0,0,2,0,6,0.0,asocial
01JVTTBK0ZW8NB94CW4DEZCCDS,31,6,6,1.0,22,4,67,7,6,0.0,asocial
01JVTTBK0ZW8NB94CW4DEZCCDS,31,7,6,1.0,0,0,2,0,6,0.0,asocial
01JVTTBK0ZW8NB94CW4DEZCCDS,31,8,6,1.0,2,0,21,3,6,0.0,asocial
01JVTTBK0ZW8NB94CW4DEZCCDS,31,9,6,1.0,2,0,2,0,6,0.0,asocial
01JVTTBK0ZW8NB94CW4DEZCCDS,32,0,6,1.0,0,0,2,0,6,1.0,asocial
01JVTTBK0ZW8NB94CW4DEZCCDS,32,1,6,1.0,0,0,12,0,6,1.0,asocial
01JVTTBK0ZW8NB94CW4DEZCCDS,32,2,6,1.0,0,0,1,0,6,1.0,asocial
01JVTTBK0ZW8NB94CW4DEZCCDS,32,3,6,1.0,0,0,173,16,6,1.0,asocial
01JVTTBK0ZW8NB94CW4DEZCCDS,32,4,6,1.0,0,0,1,0,6,1.0,asocial
01JVTTBK0ZW8NB94CW4DEZCCDS,32,5,6,1.0,0,0,2,0,6,1.0,asocial
01JVTTBK0ZW8NB94CW4DEZCCDS,32,6,6,1.0,23,4,68,7,6,1.0,asocial
01JVTTBK0ZW8NB94CW4DEZCCDS,32,7,6,1.0,0,0,2,0,6,1.0,asocial
01JVTTBK0ZW8NB94CW4DEZCCDS,32,8,6,1.0,2,0,21,3,6,1.0,asocial
01JVTTBK0ZW8NB94CW4DEZCCDS,32,9,6,1.0,2,0,2,0,6,1.0,asocial
01JVTTBK0ZW8NB94CW4DEZCCDS,33,0,6,1.0,0,0,2,0,6,1.0,asocial
01JVTTBK0ZW8NB94CW4DEZCCDS,33,1,6,1.0,0,0,15,0,6,1.0,asocial
01JVTTBK0ZW8NB94CW4DEZCCDS,33,2,6,1.0,0,0,1,0,6,1.0,asocial
01JVTTBK0ZW8NB94CW4DEZCCDS,33,3,6,1.0,0,0,178,17,6,1.0,asocial
01JVTTBK0ZW8NB94CW4DEZCCDS,33,4,6,1.0,0,0,1,0,6,1.0,asocial
01JVTTBK0ZW8NB94CW4DEZCCDS,33,5,6,1.0,0,0,2,0,6,1.0,asocial
01JVTTBK0ZW8NB94CW4DEZCCDS,33,6,6,1.0,24,4,69,7,6,1.0,asocial
01JVTTBK0ZW8NB94CW4DEZCCDS,33,7,6,1.0,0,0,2,0,6,1.0,asocial
01JVTTBK0ZW8NB94CW4DEZCCDS,33,8,6,1.0,2,0,21,3,6,1.0,asocial
01JVTTBK0ZW8NB94CW4DEZCCDS,33,9,6,1.0,2,0,2,0,6,1.0,asocial
01JVTTBK0ZW8NB94CW4DEZCCDS,34,0,6,1.0,0,0,2,0,6,1.0,asocial
01JVTTBK0ZW8NB94CW4DEZCCDS,34,1,6,1.0,0,0,18,0,6,1.0,asocial
01JVTTBK0ZW8NB94CW4DEZCCDS,34,2,6,1.0,0,0,1,0,6,1.0,asocial
01JVTTBK0ZW8NB94CW4DEZCCDS,34,3,6,1.0,0,0,182,19,6,1.0,asocial
01JVTTBK0ZW8NB94CW4DEZCCDS,34,4,6,1.0,0,0,1,0,6,1.0,asocial
01JVTTBK0ZW8NB94CW4DEZCCDS,34,5,6,1.0,0,0,2,0,6,1.0,asocial
01JVTTBK0ZW8NB94CW4DEZCCDS,34,6,6,1.0,25,4,70,7,6,1.0,asocial
01JVTTBK0ZW8NB94CW4DEZCCDS,34,7,6,1.0,0,0,2,0,6,1.0,asocial
01JVTTBK0ZW8NB94CW4DEZCCDS,34,8,6,1.0,2,0,21,3,6,1.0,asocial
01JVTTBK0ZW8NB94CW4DEZCCDS,34,9,6,1.0,2,0,2,0,6,1.0,asocial
01JVTTBK0ZW8NB94CW4DEZCCDS,35,0,3,1.0,0,0,2,0,6,1.0,asocial
01JVTTBK0ZW8NB94CW4DEZCCDS,35,1,3,1.0,0,0,20,1,6,1.0,asocial
01JVTTBK0ZW8NB94CW4DEZCCDS,35,2,3,1.0,0,0,1,0,6,1.0,asocial
01JVTTBK0ZW8NB94CW4DEZCCDS,35,3,3,1.0,0,0,188,19,6,1.0,asocial
01JVTTBK0ZW8NB94CW4DEZCCDS,35,4,3,1.0,0,0,1,0,6,1.0,asocial
01JVTTBK0ZW8NB94CW4DEZCCDS,35,5,3,1.0,0,0,2,0,6,1.0,asocial
01JVTTBK0ZW8NB94CW4DEZCCDS,35,6,3,1.0,26,4,71,7,6,1.0,asocial
01JVTTBK0ZW8NB94CW4DEZCCDS,35,7,3,1.0,0,0,2,0,6,1.0,asocial
01JVTTBK0ZW8NB94CW4DEZCCDS,35,8,3,1.0,2,0,21,3,6,1.0,asocial
01JVTTBK0ZW8NB94CW4DEZCCDS,35,9,3,1.0,2,0,2,0,6,1.0,asocial
01JVTTBK0ZW8NB94CW4DEZCCDS,36,0,6,1.0,0,0,2,0,3,1.0,asocial
01JVTTBK0ZW8NB94CW4DEZCCDS,36,1,6,1.0,0,0,23,1,3,1.0,asocial
01JVTTBK0ZW8NB94CW4DEZCCDS,36,2,6,1.0,0,0,1,0,3,1.0,asocial
01JVTTBK0ZW8NB94CW4DEZCCDS,36,3,6,1.0,1,0,194,20,3,1.0,asocial
01JVTTBK0ZW8NB94CW4DEZCCDS,36,4,6,1.0,0,0,1,0,3,1.0,asocial
01JVTTBK0ZW8NB94CW4DEZCCDS,36,5,6,1.0,0,0,2,0,3,1.0,asocial
01JVTTBK0ZW8NB94CW4DEZCCDS,36,6,6,1.0,26,4,71,7,3,1.0,asocial
01JVTTBK0ZW8NB94CW4DEZCCDS,36,7,6,1.0,0,0,2,0,3,1.0,asocial
01JVTTBK0ZW8NB94CW4DEZCCDS,36,8,6,1.0,2,0,21,3,3,1.0,asocial
01JVTTBK0ZW8NB94CW4DEZCCDS,36,9,6,1.0,2,0,2,0,3,1.0,asocial
01JVTTBK0ZW8NB94CW4DEZCCDS,37,0,6,1.0,0,0,2,0,6,1.0,asocial
01JVTTBK0ZW8NB94CW4DEZCCDS,37,1,6,1.0,0,0,25,1,6,1.0,asocial
01JVTTBK0ZW8NB94CW4DEZCCDS,37,2,6,1.0,0,0,1,0,6,1.0,asocial
01JVTTBK0ZW8NB94CW4DEZCCDS,37,3,6,1.0,1,0,200,20,6,1.0,asocial
01JVTTBK0ZW8NB94CW4DEZCCDS,37,4,6,1.0,0,0,1,0,6,1.0,asocial
01JVTTBK0ZW8NB94CW4DEZCCDS,37,5,6,1.0,0,0,2,0,6,1.0,asocial
01JVTTBK0ZW8NB94CW4DEZCCDS,37,6,6,1.0,27,4,72,7,6,1.0,asocial
01JVTTBK0ZW8NB94CW4DEZCCDS,37,7,6,1.0,0,0,3,0,6,1.0,asocial
01JVTTBK0ZW8NB94CW4DEZCCDS,37,8,6,1.0,2,0,21,3,6,1.0,asocial
01JVTTBK0ZW8NB94CW4DEZCCDS,37,9,6,1.0,2,0,2,0,6,1.0,asocial
01JVTTBK0ZW8NB94CW4DEZCCDS,38,0,6,1.0,0,0,2,0,6,1.0,asocial
01JVTTBK0ZW8NB94CW4DEZCCDS,38,1,6,1.0,0,0,27,1,6,1.0,asocial
01JVTTBK0ZW8NB94CW4DEZCCDS,38,2,6,1.0,0,0,2,0,6,1.0,asocial
01JVTTBK0ZW8NB94CW4DEZCCDS,38,3,6,1.0,1,0,204,22,6,1.0,asocial
01JVTTBK0ZW8NB94CW4DEZCCDS,38,4,6,1.0,0,0,1,0,6,1.0,asocial
01JVTTBK0ZW8NB94CW4DEZCCDS,38,5,6,1.0,0,0,2,0,6,1.0,asocial
01JVTTBK0ZW8NB94CW4DEZCCDS,38,6,6,1.0,28,4,73,7,6,1.0,asocial
01JVTTBK0ZW8NB94CW4DEZCCDS,38,7,6,1.0,0,0,3,0,6,1.0,asocial
01JVTTBK0ZW8NB94CW4DEZCCDS,38,8,6,1.0,2,0,21,3,6,1.0,asocial
01JVTTBK0ZW8NB94CW4DEZCCDS,38,9,6,1.0,2,0,2,0,6,1.0,asocial
01JVTTBK0ZW8NB94CW4DEZCCDS,39,0,6,1.0,0,0,2,0,6,1.0,asocial
01JVTTBK0ZW8NB94CW4DEZCCDS,39,1,6,1.0,0,0,29,1,6,1.0,asocial
01JVTTBK0ZW8NB94CW4DEZCCDS,39,2,6,1.0,0,0,3,0,6,1.0,asocial
01JVTTBK0ZW8NB94CW4DEZCCDS,39,3,6,1.0,1,0,208,23,6,1.0,asocial
01JVTTBK0ZW8NB94CW4DEZCCDS,39,4,6,1.0,0,0,1,0,6,1.0,asocial
01JVTTBK0ZW8NB94CW4DEZCCDS,39,5,6,1.0,0,0,2,0,6,1.0,asocial
01JVTTBK0ZW8NB94CW4DEZCCDS,39,6,6,1.0,29,4,75,7,6,1.0,asocial
01JVTTBK0ZW8NB94CW4DEZCCDS,39,7,6,1.0,0,0,3,0,6,1.0,asocial
01JVTTBK0ZW8NB94CW4DEZCCDS,39,8,6,1.0,2,0,21,3,6,1.0,asocial
01JVTTBK0ZW8NB94CW4DEZCCDS,39,9,6,1.0,2,0,2,0,6,1.0,asocial
01JVTTBK0ZW8NB94CW4DEZCCDS,40,0,6,1.0,0,0,2,0,6,1.0,asocial
01JVTTBK0ZW8NB94CW4DEZCCDS,40,1,6,1.0,0,0,31,1,6,1.0,asocial
01JVTTBK0ZW8NB94CW4DEZCCDS,40,2,6,1.0,0,0,3,0,6,1.0,asocial
01JVTTBK0ZW8NB94CW4DEZCCDS,40,3,6,1.0,1,0,213,23,6,1.0,asocial
01JVTTBK0ZW8NB94CW4DEZCCDS,40,4,6,1.0,0,0,1,0,6,1.0,asocial
01JVTTBK0ZW8NB94CW4DEZCCDS,40,5,6,1.0,0,0,2,0,6,1.0,asocial
01JVTTBK0ZW8NB94CW4DEZCCDS,40,6,6,1.0,30,4,77,7,6,1.0,asocial
01JVTTBK0ZW8NB94CW4DEZCCDS,40,7,6,1.0,0,0,4,0,6,1.0,asocial
01JVTTBK0ZW8NB94CW4DEZCCDS,40,8,6,1.0,2,0,21,3,6,1.0,asocial
01JVTTBK0ZW8NB94CW4DEZCCDS,40,9,6,1.0,2,0,2,0,6,1.0,asocial
01JVTTBK0ZW8NB94CW4DEZCCDS,41,0,6,1.0,0,0,2,0,6,1.0,asocial
01JVTTBK0ZW8NB94CW4DEZCCDS,41,1,6,1.0,0,0,33,1,6,1.0,asocial
01JVTTBK0ZW8NB94CW4DEZCCDS,41,2,6,1.0,0,0,3,0,6,1.0,asocial
01JVTTBK0ZW8NB94CW4DEZCCDS,41,3,6,1.0,1,0,218,23,6,1.0,asocial
01JVTTBK0ZW8NB94CW4DEZCCDS,41,4,6,1.0,0,0,1,0,6,1.0,asocial
01JVTTBK0ZW8NB94CW4DEZCCDS,41,5,6,1.0,0,0,2,0,6,1.0,asocial
01JVTTBK0ZW8NB94CW4DEZCCDS,41,6,6,1.0,31,4,79,7,6,1.0,asocial
01JVTTBK0ZW8NB94CW4DEZCCDS,41,7,6,1.0,0,0,5,0,6,1.0,asocial
01JVTTBK0ZW8NB94CW4DEZCCDS,41,8,6,1.0,2,0,21,3,6,1.0,asocial
01JVTTBK0ZW8NB94CW4DEZCCDS,41,9,6,1.0,2,0,2,0,6,1.0,asocial
01JVTTBK0ZW8NB94CW4DEZCCDS,42,0,6,1.0,0,0,2,0,6,1.0,asocial
01JVTTBK0ZW8NB94CW4DEZCCDS,42,1,6,1.0,0,0,35,1,6,1.0,asocial
01JVTTBK0ZW8NB94CW4DEZCCDS,42,2,6,1.0,0,0,3,0,6,1.0,asocial
01JVTTBK0ZW8NB94CW4DEZCCDS,42,3,6,1.0,1,0,222,24,6,1.0,asocial
01JVTTBK0ZW8NB94CW4DEZCCDS,42,4,6,1.0,0,0,1,0,6,1.0,asocial
01JVTTBK0ZW8NB94CW4DEZCCDS,42,5,6,1.0,0,0,2,0,6,1.0,asocial
01JVTTBK0ZW8NB94CW4DEZCCDS,42,6,6,1.0,32,4,81,7,6,1.0,asocial
01JVTTBK0ZW8NB94CW4DEZCCDS,42,7,6,1.0,0,0,6,0,6,1.0,asocial
01JVTTBK0ZW8NB94CW4DEZCCDS,42,8,6,1.0,2,0,21,3,6,1.0,asocial
01JVTTBK0ZW8NB94CW4DEZCCDS,42,9,6,1.0,2,0,2,0,6,1.0,asocial
01JVTTBK0ZW8NB94CW4DEZCCDS,43,0,6,1.0,0,0,2,0,6,1.0,asocial
01JVTTBK0ZW8NB94CW4DEZCCDS,43,1,6,1.0,0,0,37,1,6,1.0,asocial
01JVTTBK0ZW8NB94CW4DEZCCDS,43,2,6,1.0,0,0,3,0,6,1.0,asocial
01JVTTBK0ZW8NB94CW4DEZCCDS,43,3,6,1.0,1,0,227,24,6,1.0,asocial
01JVTTBK0ZW8NB94CW4DEZCCDS,43,4,6,1.0,0,0,1,0,6,1.0,asocial
01JVTTBK0ZW8NB94CW4DEZCCDS,43,5,6,1.0,0,0,2,0,6,1.0,asocial
01JVTTBK0ZW8NB94CW4DEZCCDS,43,6,6,1.0,33,4,83,7,6,1.0,asocial
01JVTTBK0ZW8NB94CW4DEZCCDS,43,7,6,1.0,0,0,7,0,6,1.0,asocial
01JVTTBK0ZW8NB94CW4DEZCCDS,43,8,6,1.0,2,0,21,3,6,1.0,asocial
01JVTTBK0ZW8NB94CW4DEZCCDS,43,9,6,1.0,2,0,2,0,6,1.0,asocial
01JVTTBK0ZW8NB94CW4DEZCCDS,44,0,6,1.0,0,0,2,0,6,1.0,asocial
01JVTTBK0ZW8NB94CW4DEZCCDS,44,1,6,1.0,0,0,39,1,6,1.0,asocial
01JVTTBK0ZW8NB94CW4DEZCCDS,44,2,6,1.0,0,0,3,0,6,1.0,asocial
01JVTTBK0ZW8NB94CW4DEZCCDS,44,3,6,1.0,1,0,231,25,6,1.0,asocial
01JVTTBK0ZW8NB94CW4DEZCCDS,44,4,6,1.0,0,0,1,0,6,1.0,asocial
01JVTTBK0ZW8NB94CW4DEZCCDS,44,5,6,1.0,0,0,2,0,6,1.0,asocial
01JVTTBK0ZW8NB94CW4DEZCCDS,44,6,6,1.0,34,4,85,7,6,1.0,asocial
01JVTTBK0ZW8NB94CW4DEZCCDS,44,7,6,1.0,0,0,8,0,6,1.0,asocial
01JVTTBK0ZW8NB94CW4DEZCCDS,44,8,6,1.0,2,0,21,3,6,1.0,asocial
01JVTTBK0ZW8NB94CW4DEZCCDS,44,9,6,1.0,2,0,2,0,6,1.0,asocial
01JVTTBK0ZW8NB94CW4DEZCCDS,45,0,6,1.0,0,0,2,0,6,1.0,asocial
01JVTTBK0ZW8NB94CW4DEZCCDS,45,1,6,1.0,0,0,41,1,6,1.0,asocial
01JVTTBK0ZW8NB94CW4DEZCCDS,45,2,6,1.0,0,0,3,0,6,1.0,asocial
01JVTTBK0ZW8NB94CW4DEZCCDS,45,3,6,1.0,1,0,237,25,6,1.0,asocial
01JVTTBK0ZW8NB94CW4DEZCCDS,45,4,6,1.0,0,0,1,0,6,1.0,asocial
01JVTTBK0ZW8NB94CW4DEZCCDS,45,5,6,1.0,0,0,2,0,6,1.0,asocial
01JVTTBK0ZW8NB94CW4DEZCCDS,45,6,6,1.0,35,4,86,7,6,1.0,asocial
01JVTTBK0ZW8NB94CW4DEZCCDS,45,7,6,1.0,0,0,9,0,6,1.0,asocial
01JVTTBK0ZW8NB94CW4DEZCCDS,45,8,6,1.0,2,0,21,3,6,1.0,asocial
01JVTTBK0ZW8NB94CW4DEZCCDS,45,9,6,1.0,2,0,2,0,6,1.0,asocial
01JVTTBK0ZW8NB94CW4DEZCCDS,46,0,6,1.0,0,0,2,0,6,1.0,asocial
01JVTTBK0ZW8NB94CW4DEZCCDS,46,1,6,1.0,0,0,43,1,6,1.0,asocial
01JVTTBK0ZW8NB94CW4DEZCCDS,46,2,6,1.0,0,0,3,0,6,1.0,asocial
01JVTTBK0ZW8NB94CW4DEZCCDS,46,3,6,1.0,1,0,242,25,6,1.0,asocial
01JVTTBK0ZW8NB94CW4DEZCCDS,46,4,6,1.0,0,0,1,0,6,1.0,asocial
01JVTTBK0ZW8NB94CW4DEZCCDS,46,5,6,1.0,0,0,2,0,6,1.0,asocial
01JVTTBK0ZW8NB94CW4DEZCCDS,46,6,6,1.0,36,4,88,7,6,1.0,asocial
01JVTTBK0ZW8NB94CW4DEZCCDS,46,7,6,1.0,0,0,10,0,6,1.0,asocial
01JVTTBK0ZW8NB94CW4DEZCCDS,46,8,6,1.0,2,0,21,3,6,1.0,asocial
01JVTTBK0ZW8NB94CW4DEZCCDS,46,9,6,1.0,2,0,2,0,6,1.0,asocial
01JVTTBK0ZW8NB94CW4DEZCCDS,47,0,6,1.0,0,0,2,0,6,1.0,asocial
01JVTTBK0ZW8NB94CW4DEZCCDS,47,1,6,1.0,0,0,45,1,6,1.0,asocial
01JVTTBK0ZW8NB94CW4DEZCCDS,47,2,6,1.0,0,0,3,0,6,1.0,asocial
01JVTTBK0ZW8NB94CW4DEZCCDS,47,3,6,1.0,1,0,246,26,6,1.0,asocial
01JVTTBK0ZW8NB94CW4DEZCCDS,47,4,6,1.0,0,0,1,0,6,1.0,asocial
01JVTTBK0ZW8NB94CW4DEZCCDS,47,5,6,1.0,0,0,2,0,6,1.0,asocial
01JVTTBK0ZW8NB94CW4DEZCCDS,47,6,6,1.0,37,4,90,7,6,1.0,asocial
01JVTTBK0ZW8NB94CW4DEZCCDS,47,7,6,1.0,0,0,11,0,6,1.0,asocial
01JVTTBK0ZW8NB94CW4DEZCCDS,47,8,6,1.0,2,0,21,3,6,1.0,asocial
01JVTTBK0ZW8NB94CW4DEZCCDS,47,9,6,1.0,2,0,2,0,6,1.0,asocial
01JVTTBK0ZW8NB94CW4DEZCCDS,48,0,6,1.0,0,0,2,0,6,1.0,asocial
01JVTTBK0ZW8NB94CW4DEZCCDS,48,1,6,1.0,0,0,47,1,6,1.0,asocial
01JVTTBK0ZW8NB94CW4DEZCCDS,48,2,6,1.0,0,0,3,0,6,1.0,asocial
01JVTTBK0ZW8NB94CW4DEZCCDS,48,3,6,1.0,1,0,250,27,6,1.0,asocial
01JVTTBK0ZW8NB94CW4DEZCCDS,48,4,6,1.0,0,0,1,0,6,1.0,asocial
01JVTTBK0ZW8NB94CW4DEZCCDS,48,5,6,1.0,0,0,2,0,6,1.0,asocial
01JVTTBK0ZW8NB94CW4DEZCCDS,48,6,6,1.0,38,4,92,7,6,1.0,asocial
01JVTTBK0ZW8NB94CW4DEZCCDS,48,7,6,1.0,0,0,12,0,6,1.0,asocial
01JVTTBK0ZW8NB94CW4DEZCCDS,48,8,6,1.0,2,0,21,3,6,1.0,asocial
01JVTTBK0ZW8NB94CW4DEZCCDS,48,9,6,1.0,2,0,2,0,6,1.0,asocial
01JVTTBK0ZW8NB94CW4DEZCCDS,49,0,6,1.0,0,0,2,0,6,1.0,asocial
01JVTTBK0ZW8NB94CW4DEZCCDS,49,1,6,1.0,0,0,48,1,6,1.0,asocial
01JVTTBK0ZW8NB94CW4DEZCCDS,49,2,6,1.0,0,0,3,0,6,1.0,asocial
01JVTTBK0ZW8NB94CW4DEZCCDS,49,3,6,1.0,1,0,254,28,6,1.0,asocial
01JVTTBK0ZW8NB94CW4DEZCCDS,49,4,6,1.0,0,0,1,0,6,1.0,asocial
01JVTTBK0ZW8NB94CW4DEZCCDS,49,5,6,1.0,0,0,2,0,6,1.0,asocial
01JVTTBK0ZW8NB94CW4DEZCCDS,49,6,6,1.0,39,4,93,8,6,1.0,asocial
01JVTTBK0ZW8NB94CW4DEZCCDS,49,7,6,1.0,0,0,14,0,6,1.0,asocial
01JVTTBK0ZW8NB94CW4DEZCCDS,49,8,6,1.0,2,0,21,3,6,1.0,asocial
01JVTTBK0ZW8NB94CW4DEZCCDS,49,9,6,1.0,2,0,2,0,6,1.0,asocial
01JVTTBK0ZW8NB94CW4DEZCCDS,50,0,6,1.0,0,0,2,0,6,1.0,asocial
01JVTTBK0ZW8NB94CW4DEZCCDS,50,1,6,1.0,0,0,49,1,6,1.0,asocial
01JVTTBK0ZW8NB94CW4DEZCCDS,50,2,6,1.0,0,0,3,0,6,1.0,asocial
01JVTTBK0ZW8NB94CW4DEZCCDS,50,3,6,1.0,1,0,257,30,6,1.0,asocial
01JVTTBK0ZW8NB94CW4DEZCCDS,50,4,6,1.0,0,0,1,0,6,1.0,asocial
01JVTTBK0ZW8NB94CW4DEZCCDS,50,5,6,1.0,0,0,2,0,6,1.0,asocial
01JVTTBK0ZW8NB94CW4DEZCCDS,50,6,6,1.0,40,4,95,8,6,1.0,asocial
01JVTTBK0ZW8NB94CW4DEZCCDS,50,7,6,1.0,0,0,16,0,6,1.0,asocial
01JVTTBK0ZW8NB94CW4DEZCCDS,50,8,6,1.0,2,0,21,3,6,1.0,asocial
01JVTTBK0ZW8NB94CW4DEZCCDS,50,9,6,1.0,2,0,2,0,6,1.0,asocial
01JVTTBK0ZW8NB94CW4DEZCCDS,51,0,6,1.0,0,0,2,0,6,1.0,asocial
01JVTTBK0ZW8NB94CW4DEZCCDS,51,1,6,1.0,0,0,51,1,6,1.0,asocial
01JVTTBK0ZW8NB94CW4DEZCCDS,51,2,6,1.0,0,0,3,0,6,1.0,asocial
01JVTTBK0ZW8NB94CW4DEZCCDS,51,3,6,1.0,1,0,262,31,6,1.0,asocial
01JVTTBK0ZW8NB94CW4DEZCCDS,51,4,6,1.0,0,0,1,0,6,1.0,asocial
01JVTTBK0ZW8NB94CW4DEZCCDS,51,5,6,1.0,0,0,2,0,6,1.0,asocial
01JVTTBK0ZW8NB94CW4DEZCCDS,51,6,6,1.0,41,4,96,8,6,1.0,asocial
01JVTTBK0ZW8NB94CW4DEZCCDS,51,7,6,1.0,0,0,17,0,6,1.0,asocial
01JVTTBK0ZW8NB94CW4DEZCCDS,51,8,6,1.0,2,0,21,3,6,1.0,asocial
01JVTTBK0ZW8NB94CW4DEZCCDS,51,9,6,1.0,2,0,2,0,6,1.0,asocial
01JVTTC4VB5TX4YM0ASWKY7SGE,1,0,8,1.0,0,0,0,0,-1,,asocial
01JVTTC4VB5TX4YM0ASWKY7SGE,1,1,8,1.0,0,0,0,0,-1,,asocial
01JVTTC4VB5TX4YM0ASWKY7SGE,1,2,8,1.0,0,0,0,0,-1,,asocial
01JVTTC4VB5TX4YM0ASWKY7SGE,1,3,8,1.0,0,0,0,0,-1,,asocial
01JVTTC4VB5TX4YM0ASWKY7SGE,1,4,8,1.0,0,0,0,0,-1,,asocial
01JVTTC4VB5TX4YM0ASWKY7SGE,1,5,8,1.0,0,0,0,0,-1,,asocial
01JVTTC4VB5TX4YM0ASWKY7SGE,1,6,8,1.0,0,0,0,0,-1,,asocial
01JVTTC4VB5TX4YM0ASWKY7SGE,1,7,8,1.0,0,0,0,0,-1,,asocial
01JVTTC4VB5TX4YM0ASWKY7SGE,1,8,8,1.0,0,0,0,0,-1,,asocial
01JVTTC4VB5TX4YM0ASWKY7SGE,1,9,8,1.0,0,0,0,0,-1,,asocial
01JVTTC4VB5TX4YM0ASWKY7SGE,2,0,8,1.0,0,0,1,0,8,1.0,asocial
01JVTTC4VB5TX4YM0ASWKY7SGE,2,1,8,1.0,0,0,1,0,8,1.0,asocial
01JVTTC4VB5TX4YM0ASWKY7SGE,2,2,8,1.0,0,0,1,0,8,1.0,asocial
01JVTTC4VB5TX4YM0ASWKY7SGE,2,3,8,1.0,0,0,1,0,8,1.0,asocial
01JVTTC4VB5TX4YM0ASWKY7SGE,2,4,8,1.0,0,0,1,0,8,1.0,asocial
01JVTTC4VB5TX4YM0ASWKY7SGE,2,5,8,1.0,0,0,1,0,8,1.0,asocial
01JVTTC4VB5TX4YM0ASWKY7SGE,2,6,8,1.0,0,0,1,0,8,1.0,asocial
01JVTTC4VB5TX4YM0ASWKY7SGE,2,7,8,1.0,0,0,1,0,8,1.0,asocial
01JVTTC4VB5TX4YM0ASWKY7SGE,2,8,8,1.0,1,0,1,0,8,1.0,asocial
01JVTTC4VB5TX4YM0ASWKY7SGE,2,9,8,1.0,0,0,1,0,8,1.0,asocial
01JVTTC4VB5TX4YM0ASWKY7SGE,3,0,3,1.0,0,0,2,0,8,1.0,asocial
01JVTTC4VB5TX4YM0ASWKY7SGE,3,1,3,1.0,0,0,2,0,8,1.0,asocial
01JVTTC4VB5TX4YM0ASWKY7SGE,3,2,3,1.0,0,0,1,0,8,1.0,asocial
01JVTTC4VB5TX4YM0ASWKY7SGE,3,3,3,1.0,0,0,3,0,8,1.0,asocial
01JVTTC4VB5TX4YM0ASWKY7SGE,3,4,3,1.0,0,0,1,0,8,1.0,asocial
01JVTTC4VB5TX4YM0ASWKY7SGE,3,5,3,1.0,0,0,2,0,8,1.0,asocial
01JVTTC4VB5TX4YM0ASWKY7SGE,3,6,3,1.0,0,0,3,0,8,1.0,asocial
01JVTTC4VB5TX4YM0ASWKY7SGE,3,7,3,1.0,0,0,2,0,8,1.0,asocial
01JVTTC4VB5TX4YM0ASWKY7SGE,3,8,3,1.0,2,0,2,0,8,1.0,asocial
01JVTTC4VB5TX4YM0ASWKY7SGE,3,9,3,1.0,0,0,2,0,8,1.0,asocial
01JVTTC4VB5TX4YM0ASWKY7SGE,4,0,3,1.0,0,0,2,0,3,1.0,asocial
01JVTTC4VB5TX4YM0ASWKY7SGE,4,1,3,1.0,0,0,2,0,3,1.0,asocial
01JVTTC4VB5TX4YM0ASWKY7SGE,4,2,3,1.0,0,0,1,0,3,1.0,asocial
01JVTTC4VB5TX4YM0ASWKY7SGE,4,3,3,1.0,1,0,9,0,3,1.0,asocial
01JVTTC4VB5TX4YM0ASWKY7SGE,4,4,3,1.0,0,0,1,0,3,1.0,asocial
01JVTTC4VB5TX4YM0ASWKY7SGE,4,5,3,1.0,0,0,2,0,3,1.0,asocial
01JVTTC4VB5TX4YM0ASWKY7SGE,4,6,3,1.0,0,0,6,0,3,1.0,asocial
01JVTTC4VB5TX4YM0ASWKY7SGE,4,7,3,1.0,0,0,2,0,3,1.0,asocial
01JVTTC4VB5TX4YM0ASWKY7SGE,4,8,3,1.0,2,0,3,0,3,1.0,asocial
01JVTTC4VB5TX4YM0ASWKY7SGE,4,9,3,1.0,0,0,2,0,3,1.0,asocial
01JVTTC4VB5TX4YM0ASWKY7SGE,5,0,3,1.0,0,0,2,0,3,1.0,asocial
01JVTTC4VB5TX4YM0ASWKY7SGE,5,1,3,1.0,0,0,2,0,3,1.0,asocial
01JVTTC4VB5TX4YM0ASWKY7SGE,5,2,3,1.0,0,0,1,0,3,1.0,asocial
01JVTTC4VB5TX4YM0ASWKY7SGE,5,3,3,1.0,2,0,18,0,3,1.0,asocial
01JVTTC4VB5TX4YM0ASWKY7SGE,5,4,3,1.0,0,0,1,0,3,1.0,asocial
01JVTTC4VB5TX4YM0ASWKY7SGE,5,5,3,1.0,0,0,2,0,3,1.0,asocial
01JVTTC4VB5TX4YM0ASWKY7SGE,5,6,3,1.0,0,0,6,0,3,1.0,asocial
01JVTTC4VB5TX4YM0ASWKY7SGE,5,7,3,1.0,0,0,2,0,3,1.0,asocial
01JVTTC4VB5TX4YM0ASWKY7SGE,5,8,3,1.0,2,0,4,0,3,1.0,asocial
01JVTTC4VB5TX4YM0ASWKY7SGE,5,9,3,1.0,0,0,2,0,3,1.0,asocial
01JVTTC4VB5TX4YM0ASWKY7SGE,6,0,3,0.0,0,0,2,0,3,1.0,asocial
01JVTTC4VB5TX4YM0ASWKY7SGE,6,1,3,0.0,0,0,2,0,3,1.0,asocial
01JVTTC4VB5TX4YM0ASWKY7SGE,6,2,3,0.0,0,0,1,0,3,1.0,asocial
01JVTTC4VB5TX4YM0ASWKY7SGE,6,3,3,0.0,3,0,25,2,3,1.0,asocial
01JVTTC4VB5TX4YM0ASWKY7SGE,6,4,3,0.0,0,0,1,0,3,1.0,asocial
01JVTTC4VB5TX4YM0ASWKY7SGE,6,5,3,0.0,0,0,2,0,3,1.0,asocial
01JVTTC4VB5TX4YM0ASWKY7SGE,6,6,3,0.0,0,0,7,0,3,1.0,asocial
01JVTTC4VB5TX4YM0ASWKY7SGE,6,7,3,0.0,0,0,2,0,3,1.0,asocial
01JVTTC4VB5TX4YM0ASWKY7SGE,6,8,3,0.0,2,0,4,0,3,1.0,asocial
01JVTTC4VB5TX4YM0ASWKY7SGE,6,9,3,0.0,0,0,2,0,3,1.0,asocial
01JVTTC4VB5TX4YM0ASWKY7SGE,7,0,6,1.0,0,0,2,0,3,0.0,asocial
01JVTTC4VB5TX4YM0ASWKY7SGE,7,1,6,1.0,0,0,2,0,3,0.0,asocial
01JVTTC4VB5TX4YM0ASWKY7SGE,7,2,6,1.0,0,0,1,0,3,0.0,asocial
01JVTTC4VB5TX4YM0ASWKY7SGE,7,3,6,1.0,3,1,32,4,3,0.0,asocial
01JVTTC4VB5TX4YM0ASWKY7SGE,7,4,6,1.0,0,0,1,0,3,0.0,asocial
01JVTTC4VB5TX4YM0ASWKY7SGE,7,5,6,1.0,0,0,2,0,3,0.0,asocial
01JVTTC4VB5TX4YM0ASWKY7SGE,7,6,6,1.0,0,0,8,0,3,0.0,asocial
01JVTTC4VB5TX4YM0ASWKY7SGE,7,7,6,1.0,0,0,2,0,3,0.0,asocial
01JVTTC4VB5TX4YM0ASWKY7SGE,7,8,6,1.0,2,0,4,0,3,0.0,asocial
01JVTTC4VB5TX4YM0ASWKY7SGE,7,9,6,1.0,0,0,2,0,3,0.0,asocial
01JVTTC4VB5TX4YM0ASWKY7SGE,8,0,3,1.0,0,0,2,0,6,1.0,asocial
01JVTTC4VB5TX4YM0ASWKY7SGE,8,1,3,1.0,0,0,2,0,6,1.0,asocial
01JVTTC4VB5TX4YM0ASWKY7SGE,8,2,3,1.0,0,0,1,0,6,1.0,asocial
01JVTTC4VB5TX4YM0ASWKY7SGE,8,3,3,1.0,3,1,38,4,6,1.0,asocial
01JVTTC4VB5TX4YM0ASWKY7SGE,8,4,3,1.0,0,0,1,0,6,1.0,asocial
01JVTTC4VB5TX4YM0ASWKY7SGE,8,5,3,1.0,0,0,2,0,6,1.0,asocial
01JVTTC4VB5TX4YM0ASWKY7SGE,8,6,3,1.0,1,0,12,0,6,1.0,asocial
01JVTTC4VB5TX4YM0ASWKY7SGE,8,7,3,1.0,0,0,2,0,6,1.0,asocial
01JVTTC4VB5TX4YM0ASWKY7SGE,8,8,3,1.0,2,0,4,0,6,1.0,asocial
01JVTTC4VB5TX4YM0ASWKY7SGE,8,9,3,1.0,0,0,2,0,6,1.0,asocial
01JVTTC4VB5TX4YM0ASWKY7SGE,9,0,3,1.0,0,0,2,0,3,1.0,asocial
01JVTTC4VB5TX4YM0ASWKY7SGE,9,1,3,1.0,0,0,2,0,3,1.0,asocial
01JVTTC4VB5TX4YM0ASWKY7SGE,9,2,3,1.0,0,0,1,0,3,1.0,asocial
01JVTTC4VB5TX4YM0ASWKY7SGE,9,3,3,1.0,4,1,45,4,3,1.0,asocial
01JVTTC4VB5TX4YM0ASWKY7SGE,9,4,3,1.0,0,0,1,0,3,1.0,asocial
01JVTTC4VB5TX4YM0ASWKY7SGE,9,5,3,1.0,0,0,2,0,3,1.0,asocial
01JVTTC4VB5TX4YM0ASWKY7SGE,9,6,3,1.0,1,0,15,0,3,1.0,asocial
01JVTTC4VB5TX4YM0ASWKY7SGE,9,7,3,1.0,0,0,2,0,3,1.0,asocial
01JVTTC4VB5TX4YM0ASWKY7SGE,9,8,3,1.0,2,0,4,0,3,1.0,asocial
01JVTTC4VB5TX4YM0ASWKY7SGE,9,9,3,1.0,0,0,2,0,3,1.0,asocial
01JVTTC4VB5TX4YM0ASWKY7SGE,10,0,3,1.0,0,0,2,0,3,1.0,asocial
01JVTTC4VB5TX4YM0ASWKY7SGE,10,1,3,1.0,0,0,2,0,3,1.0,asocial
01JVTTC4VB5TX4YM0ASWKY7SGE,10,2,3,1.0,0,0,1,0,3,1.0,asocial
01JVTTC4VB5TX4YM0ASWKY7SGE,10,3,3,1.0,5,1,52,4,3,1.0,asocial
01JVTTC4VB5TX4YM0ASWKY7SGE,10,4,3,1.0,0,0,1,0,3,1.0,asocial
01JVTTC4VB5TX4YM0ASWKY7SGE,10,5,3,1.0,0,0,2,0,3,1.0,asocial
01JVTTC4VB5TX4YM0ASWKY7SGE,10,6,3,1.0,1,0,18,0,3,1.0,asocial
01JVTTC4VB5TX4YM0ASWKY7SGE,10,7,3,1.0,0,0,2,0,3,1.0,asocial
01JVTTC4VB5TX4YM0ASWKY7SGE,10,8,3,1.0,2,0,4,0,3,1.0,asocial
01JVTTC4VB5TX4YM0ASWKY7SGE,10,9,3,1.0,0,0,2,0,3,1.0,asocial
01JVTTC4VB5TX4YM0ASWKY7SGE,11,0,3,0.0,0,0,2,0,3,1.0,asocial
01JVTTC4VB5TX4YM0ASWKY7SGE,11,1,3,0.0,0,0,2,0,3,1.0,asocial
01JVTTC4VB5TX4YM0ASWKY7SGE,11,2,3,0.0,0,0,1,0,3,1.0,asocial
01JVTTC4VB5TX4YM0ASWKY7SGE,11,3,3,0.0,6,1,57,5,3,1.0,asocial
01JVTTC4VB5TX4YM0ASWKY7SGE,11,4,3,0.0,0,0,1,0,3,1.0,asocial
01JVTTC4VB5TX4YM0ASWKY7SGE,11,5,3,0.0,0,0,2,0,3,1.0,asocial
01JVTTC4VB5TX4YM0ASWKY7SGE,11,6,3,0.0,1,0,22,0,3,1.0,asocial
01JVTTC4VB5TX4YM0ASWKY7SGE,11,7,3,0.0,0,0,2,0,3,1.0,asocial
01JVTTC4VB5TX4YM0ASWKY7SGE,11,8,3,0.0,2,0,4,0,3,1.0,asocial
01JVTTC4VB5TX4YM0ASWKY7SGE,11,9,3,0.0,0,0,2,0,3,1.0,asocial
01JVTTC4VB5TX4YM0ASWKY7SGE,12,0,6,1.0,0,0,2,0,3,0.0,asocial
01JVTTC4VB5TX4YM0ASWKY7SGE,12,1,6,1.0,0,0,2,0,3,0.0,asocial
01JVTTC4VB5TX4YM0ASWKY7SGE,12,2,6,1.0,0,0,1,0,3,0.0,asocial
01JVTTC4VB5TX4YM0ASWKY7SGE,12,3,6,1.0,6,2,62,6,3,0.0,asocial
01JVTTC4VB5TX4YM0ASWKY7SGE,12,4,6,1.0,0,0,1,0,3,0.0,asocial
01JVTTC4VB5TX4YM0ASWKY7SGE,12,5,6,1.0,0,0,2,0,3,0.0,asocial
01JVTTC4VB5TX4YM0ASWKY7SGE,12,6,6,1.0,1,0,25,1,3,0.0,asocial
01JVTTC4VB5TX4YM0ASWKY7SGE,12,7,6,1.0,0,0,2,0,3,0.0,asocial
01JVTTC4VB5TX4YM0ASWKY7SGE,12,8,6,1.0,2,0,4,0,3,0.0,asocial
01JVTTC4VB5TX4YM0ASWKY7SGE,12,9,6,1.0,0,0,2,0,3,0.0,asocial
01JVTTC4VB5TX4YM0ASWKY7SGE,13,0,6,1.0,0,0,2,0,6,1.0,asocial
01JVTTC4VB5TX4YM0ASWKY7SGE,13,1,6,1.0,0,0,2,0,6,1.0,asocial
01JVTTC4VB5TX4YM0ASWKY7SGE,13,2,6,1.0,0,0,1,0,6,1.0,asocial
01JVTTC4VB5TX4YM0ASWKY7SGE,13,3,6,1.0,6,2,68,6,6,1.0,asocial
01JVTTC4VB5TX4YM0ASWKY7SGE,13,4,6,1.0,0,0,1,0,6,1.0,asocial
01JVTTC4VB5TX4YM0ASWKY7SGE,13,5,6,1.0,0,0,2,0,6,1.0,asocial
01JVTTC4VB5TX4YM0ASWKY7SGE,13,6,6,1.0,2,0,29,1,6,1.0,asocial
01JVTTC4VB5TX4YM0ASWKY7SGE,13,7,6,1.0,0,0,2,0,6,1.0,asocial
01JVTTC4VB5TX4YM0ASWKY7SGE,13,8,6,1.0,2,0,4,0,6,1.0,asocial
01JVTTC4VB5TX4YM0ASWKY7SGE,13,9,6,1.0,0,0,2,0,6,1.0,asocial
01JVTTC4VB5TX4YM0ASWKY7SGE,14,0,3,1.0,0,0,2,0,6,1.0,asocial
01JVTTC4VB5TX4YM0ASWKY7SGE,14,1,3,1.0,0,0,2,0,6,1.0,asocial
01JVTTC4VB5TX4YM0ASWKY7SGE,14,2,3,1.0,0,0,1,0,6,1.0,asocial
01JVTTC4VB5TX4YM0ASWKY7SGE,14,3,3,1.0,6,2,73,7,6,1.0,asocial
01JVTTC4VB5TX4YM0ASWKY7SGE,14,4,3,1.0,0,0,1,0,6,1.0,asocial
01JVTTC4VB5TX4YM0ASWKY7SGE,14,5,3,1.0,0,0,2,0,6,1.0,asocial
01JVTTC4VB5TX4YM0ASWKY7SGE,14,6,3,1.0,3,0,32,2,6,1.0,asocial
01JVTTC4VB5TX4YM0ASWKY7SGE,14,7,3,1.0,0,0,2,0,6,1.0,asocial
01JVTTC4VB5TX4YM0ASWKY7SGE,14,8,3,1.0,2,0,4,0,6,1.0,asocial
01JVTTC4VB5TX4YM0ASWKY7SGE,14,9,3,1.0,0,0,2,0,6,1.0,asocial
01JVTTC4VB5TX4YM0ASWKY7SGE,15,0,6,1.0,0,0,2,0,3,1.0,asocial
01JVTTC4VB5TX4YM0ASWKY7SGE,15,1,6,1.0,0,0,2,0,3,1.0,asocial
01JVTTC4VB5TX4YM0ASWKY7SGE,15,2,6,1.0,0,0,1,0,3,1.0,asocial
01JVTTC4VB5TX4YM0ASWKY7SGE,15,3,6,1.0,7,2,78,7,3,1.0,asocial
01JVTTC4VB5TX4YM0ASWKY7SGE,15,4,6,1.0,0,0,1,0,3,1.0,asocial
01JVTTC4VB5TX4YM0ASWKY7SGE,15,5,6,1.0,0,0,2,0,3,1.0,asocial
01JVTTC4VB5TX4YM0ASWKY7SGE,15,6,6,1.0,3,0,36,2,3,1.0,asocial
01JVTTC4VB5TX4YM0ASWKY7SGE,15,7,6,1.0,0,0,2,0,3,1.0,asocial
01JVTTC4VB5TX4YM0ASWKY7SGE,15,8,6,1.0,2,0,5,0,3,1.0,asocial
01JVTTC4VB5TX4YM0ASWKY7SGE,15,9,6,1.0,0,0,2,0,3,1.0,asocial
01JVTTC4VB5TX4YM0ASWKY7SGE,16,0,6,1.0,0,0,2,0,6,1.0,asocial
01JVTTC4VB5TX4YM0ASWKY7SGE,16,1,6,1.0,0,0,2,0,6,1.0,asocial
01JVTTC4VB5TX4YM0ASWKY7SGE,16,2,6,1.0,0,0,1,0,6,1.0,asocial
01JVTTC4VB5TX4YM0ASWKY7SGE,16,3,6,1.0,7,2,83,7,6,1.0,asocial
01JVTTC4VB5TX4YM0ASWKY7SGE,16,4,6,1.0,0,0,1,0,6,1.0,asocial
01JVTTC4VB5TX4YM0ASWKY7SGE,16,5,6,1.0,0,0,2,0,6,1.0,asocial
01JVTTC4VB5TX4YM0ASWKY7SGE,16,6,6,1.0,4,0,40,2,6,1.0,asocial
01JVTTC4VB5TX4YM0ASWKY7SGE,16,7,6,1.0,0,0,2,0,6,1.0,asocial
01JVTTC4VB5TX4YM0ASWKY7SGE,16,8,6,1.0,2,0,6,0,6,1.0,asocial
01JVTTC4VB5TX4YM0ASWKY7SGE,16,9,6,1.0,0,0,2,0,6,1.0,asocial
01JVTTC4VB5TX4YM0ASWKY7SGE,17,0,3,1.0,0,0,2,0,6,1.0,asocial
01JVTTC4VB5TX4YM0ASWKY7SGE,17,1,3,1.0,0,0,2,0,6,1.0,asocial
01JVTTC4VB5TX4YM0ASWKY7SGE,17,2,3,1.0,0,0,1,0,6,1.0,asocial
01JVTTC4VB5TX4YM0ASWKY7SGE,17,3,3,1.0,7,2,89,7,6,1.0,asocial
01JVTTC4VB5TX4YM0ASWKY7SGE,17,4,3,1.0,0,0,1,0,6,1.0,asocial
01JVTTC4VB5TX4YM0ASWKY7SGE,17,5,3,1.0,0,0,2,0,6,1.0,asocial
01JVTTC4VB5TX4YM0ASWKY7SGE,17,6,3,1.0,5,0,43,3,6,1.0,asocial
01JVTTC4VB5TX4YM0ASWKY7SGE,17,7,3,1.0,0,0,2,0,6,1.0,asocial
01JVTTC4VB5TX4YM0ASWKY7SGE,17,8,3,1.0,2,0,6,0,6,1.0,asocial
01JVTTC4VB5TX4YM0ASWKY7SGE,17,9,3,1.0,0,0,2,0,6,1.0,asocial
01JVTTC4VB5TX4YM0ASWKY7SGE,18,0,3,1.0,0,0,2,0,3,1.0,asocial
01JVTTC4VB5TX4YM0ASWKY7SGE,18,1,3,1.0,0,0,2,0,3,1.0,asocial
01JVTTC4VB5TX4YM0ASWKY7SGE,18,2,3,1.0,0,0,1,0,3,1.0,asocial
01JVTTC4VB5TX4YM0ASWKY7SGE,18,3,3,1.0,8,2,96,7,3,1.0,asocial
01JVTTC4VB5TX4YM0ASWKY7SGE,18,4,3,1.0,0,0,1,0,3,1.0,asocial
01JVTTC4VB5TX4YM0ASWKY7SGE,18,5,3,1.0,0,0,2,0,3,1.0,asocial
01JVTTC4VB5TX4YM0ASWKY7SGE,18,6,3,1.0,5,0,45,3,3,1.0,asocial
01JVTTC4VB5TX4YM0ASWKY7SGE,18,7,3,1.0,0,0,2,0,3,1.0,asocial
01JVTTC4VB5TX4YM0ASWKY7SGE,18,8,3,1.0,2,0,7,0,3,1.0,asocial
01JVTTC4VB5TX4YM0ASWKY7SGE,18,9,3,1.0,0,0,2,0,3,1.0,asocial
01JVTTC4VB5TX4YM0ASWKY7SGE,19,0,3,1.0,0,0,2,0,3,1.0,asocial
01JVTTC4VB5TX4YM0ASWKY7SGE,19,1,3,1.0,0,0,2,0,3,1.0,asocial
01JVTTC4VB5TX4YM0ASWKY7SGE,19,2,3,1.0,0,0,1,0,3,1.0,asocial
01JVTTC4VB5TX4YM0ASWKY7SGE,19,3,3,1.0,9,2,103,8,3,1.0,asocial
01JVTTC4VB5TX4YM0ASWKY7SGE,19,4,3,1.0,0,0,1,0,3,1.0,asocial
01JVTTC4VB5TX4YM0ASWKY7SGE,19,5,3,1.0,0,0,2,0,3,1.0,asocial
01JVTTC4VB5TX4YM0ASWKY7SGE,19,6,3,1.0,5,0,45,4,3,1.0,asocial
01JVTTC4VB5TX4YM0ASWKY7SGE,19,7,3,1.0,0,0,2,0,3,1.0,asocial
01JVTTC4VB5TX4YM0ASWKY7SGE,19,8,3,1.0,2,0,8,0,3,1.0,asocial
01JVTTC4VB5TX4YM0ASWKY7SGE,19,9,3,1.0,0,0,2,0,3,1.0,asocial
01JVTTC4VB5TX4YM0ASWKY7SGE,20,0,3,1.0,0,0,2,0,3,1.0,asocial
01JVTTC4VB5TX4YM0ASWKY7SGE,20,1,3,1.0,0,0,2,0,3,1.0,asocial
01JVTTC4VB5TX4YM0ASWKY7SGE,20,2,3,1.0,0,0,1,0,3,1.0,asocial
01JVTTC4VB5TX4YM0ASWKY7SGE,20,3,3,1.0,10,2,110,8,3,1.0,asocial
01JVTTC4VB5TX4YM0ASWKY7SGE,20,4,3,1.0,0,0,1,0,3,1.0,asocial
01JVTTC4VB5TX4YM0ASWKY7SGE,20,5,3,1.0,0,0,2,0,3,1.0,asocial
01JVTTC4VB5TX4YM0ASWKY7SGE,20,6,3,1.0,5,0,46,4,3,1.0,asocial
01JVTTC4VB5TX4YM0ASWKY7SGE,20,7,3,1.0,0,0,2,0,3,1.0,asocial
01JVTTC4VB5TX4YM0ASWKY7SGE,20,8,3,1.0,2,0,10,0,3,1.0,asocial
01JVTTC4VB5TX4YM0ASWKY7SGE,20,9,3,1.0,0,0,2,0,3,1.0,asocial
01JVTTC4VB5TX4YM0ASWKY7SGE,21,0,8,1.0,0,0,2,0,3,1.0,asocial
01JVTTC4VB5TX4YM0ASWKY7SGE,21,1,8,1.0,0,0,2,0,3,1.0,asocial
01JVTTC4VB5TX4YM0ASWKY7SGE,21,2,8,1.0,0,0,1,0,3,1.0,asocial
01JVTTC4VB5TX4YM0ASWKY7SGE,21,3,8,1.0,11,2,116,8,3,1.0,asocial
01JVTTC4VB5TX4YM0ASWKY7SGE,21,4,8,1.0,0,0,1,0,3,1.0,asocial
01JVTTC4VB5TX4YM0ASWKY7SGE,21,5,8,1.0,0,0,2,0,3,1.0,asocial
01JVTTC4VB5TX4YM0ASWKY7SGE,21,6,8,1.0,5,0,47,4,3,1.0,asocial
01JVTTC4VB5TX4YM0ASWKY7SGE,21,7,8,1.0,0,0,2,0,3,1.0,asocial
01JVTTC4VB5TX4YM0ASWKY7SGE,21,8,8,1.0,2,0,13,0,3,1.0,asocial
01JVTTC4VB5TX4YM0ASWKY7SGE,21,9,8,1.0,0,0,2,0,3,1.0,asocial
01JVTTC4VB5TX4YM0ASWKY7SGE,22,0,8,1.0,0,0,2,0,8,1.0,asocial
01JVTTC4VB5TX4YM0ASWKY7SGE,22,1,8,1.0,0,0,2,0,8,1.0,asocial
01JVTTC4VB5TX4YM0ASWKY7SGE,22,2,8,1.0,0,0,1,0,8,1.0,asocial
01JVTTC4VB5TX4YM0ASWKY7SGE,22,3,8,1.0,11,2,121,8,8,1.0,asocial
01JVTTC4VB5TX4YM0ASWKY7SGE,22,4,8,1.0,0,0,1,0,8,1.0,asocial
01JVTTC4VB5TX4YM0ASWKY7SGE,22,5,8,1.0,0,0,2,0,8,1.0,asocial
01JVTTC4VB5TX4YM0ASWKY7SGE,22,6,8,1.0,5,0,49,4,8,1.0,asocial
01JVTTC4VB5TX4YM0ASWKY7SGE,22,7,8,1.0,0,0,2,0,8,1.0,asocial
01JVTTC4VB5TX4YM0ASWKY7SGE,22,8,8,1.0,3,0,16,0,8,1.0,asocial
01JVTTC4VB5TX4YM0ASWKY7SGE,22,9,8,1.0,0,0,2,0,8,1.0,asocial
01JVTTC4VB5TX4YM0ASWKY7SGE,23,0,8,0.0,0,0,2,0,8,1.0,asocial
01JVTTC4VB5TX4YM0ASWKY7SGE,23,1,8,0.0,0,0,2,0,8,1.0,asocial
01JVTTC4VB5TX4YM0ASWKY7SGE,23,2,8,0.0,0,0,1,0,8,1.0,asocial
01JVTTC4VB5TX4YM0ASWKY7SGE,23,3,8,0.0,11,2,127,8,8,1.0,asocial
01JVTTC4VB5TX4YM0ASWKY7SGE,23,4,8,0.0,0,0,1,0,8,1.0,asocial
01JVTTC4VB5TX4YM0ASWKY7SGE,23,5,8,0.0,0,0,2,0,8,1.0,asocial
01JVTTC4VB5TX4YM0ASWKY7SGE,23,6,8,0.0,5,0,50,4,8,1.0,asocial
01JVTTC4VB5TX4YM0ASWKY7SGE,23,7,8,0.0,0,0,2,0,8,1.0,asocial
01JVTTC4VB5TX4YM0ASWKY7SGE,23,8,8,0.0,4,0,19,0,8,1.0,asocial
01JVTTC4VB5TX4YM0ASWKY7SGE,23,9,8,0.0,0,0,2,0,8,1.0,asocial
01JVTTC4VB5TX4YM0ASWKY7SGE,24,0,8,1.0,0,0,2,0,8,0.0,asocial
01JVTTC4VB5TX4YM0ASWKY7SGE,24,1,8,1.0,0,0,2,0,8,0.0,asocial
01JVTTC4VB5TX4YM0ASWKY7SGE,24,2,8,1.0,0,0,1,0,8,0.0,asocial
01JVTTC4VB5TX4YM0ASWKY7SGE,24,3,8,1.0,11,2,132,8,8,0.0,asocial
01JVTTC4VB5TX4YM0ASWKY7SGE,24,4,8,1.0,0,0,1,0,8,0.0,asocial
01JVTTC4VB5TX4YM0ASWKY7SGE,24,5,8,1.0,0,0,2,0,8,0.0,asocial
01JVTTC4VB5TX4YM0ASWKY7SGE,24,6,8,1.0,5,0,51,4,8,0.0,asocial
01JVTTC4VB5TX4YM0ASWKY7SGE,24,7,8,1.0,0,0,2,0,8,0.0,asocial
01JVTTC4VB5TX4YM0ASWKY7SGE,24,8,8,1.0,4,1,20,3,8,0.0,asocial
01JVTTC4VB5TX4YM0ASWKY7SGE,24,9,8,1.0,0,0,2,0,8,0.0,asocial
01JVTTC4VB5TX4YM0ASWKY7SGE,25,0,3,1.0,0,0,2,0,8,1.0,asocial
01JVTTC4VB5TX4YM0ASWKY7SGE,25,1,3,1.0,0,0,3,0,8,1.0,asocial
01JVTTC4VB5TX4YM0ASWKY7SGE,25,2,3,1.0,0,0,1,0,8,1.0,asocial
01JVTTC4VB5TX4YM0ASWKY7SGE,25,3,3,1.0,11,2,138,9,8,1.0,asocial
01JVTTC4VB5TX4YM0ASWKY7SGE,25,4,3,1.0,0,0,1,0,8,1.0,asocial
01JVTTC4VB5TX4YM0ASWKY7SGE,25,5,3,1.0,0,0,2,0,8,1.0,asocial
01JVTTC4VB5TX4YM0ASWKY7SGE,25,6,3,1.0,5,0,52,4,8,1.0,asocial
01JVTTC4VB5TX4YM0ASWKY7SGE,25,7,3,1.0,0,0,2,0,8,1.0,asocial
01JVTTC4VB5TX4YM0ASWKY7SGE,25,8,3,1.0,5,1,21,3,8,1.0,asocial
01JVTTC4VB5TX4YM0ASWKY7SGE,25,9,3,1.0,0,0,2,0,8,1.0,asocial
01JVTTC4VB5TX4YM0ASWKY7SGE,26,0,3,1.0,0,0,2,0,3,1.0,asocial
01JVTTC4VB5TX4YM0ASWKY7SGE,26,1,3,1.0,0,0,4,0,3,1.0,asocial
01JVTTC4VB5TX4YM0ASWKY7SGE,26,2,3,1.0,0,0,1,0,3,1.0,asocial
01JVTTC4VB5TX4YM0ASWKY7SGE,26,3,3,1.0,12,2,144,11,3,1.0,asocial
01JVTTC4VB5TX4YM0ASWKY7SGE,26,4,3,1.0,0,0,1,0,3,1.0,asocial
01JVTTC4VB5TX4YM0ASWKY7SGE,26,5,3,1.0,0,0,2,0,3,1.0,asocial
01JVTTC4VB5TX4YM0ASWKY7SGE,26,6,3,1.0,5,0,53,4,3,1.0,asocial
01JVTTC4VB5TX4YM0ASWKY7SGE,26,7,3,1.0,0,0,2,0,3,1.0,asocial
01JVTTC4VB5TX4YM0ASWKY7SGE,26,8,3,1.0,5,1,21,3,3,1.0,asocial
01JVTTC4VB5TX4YM0ASWKY7SGE,26,9,3,1.0,0,0,2,0,3,1.0,asocial
01JVTTC4VB5TX4YM0ASWKY7SGE,27,0,3,1.0,0,0,2,0,3,1.0,asocial
01JVTTC4VB5TX4YM0ASWKY7SGE,27,1,3,1.0,0,0,4,0,3,1.0,asocial
01JVTTC4VB5TX4YM0ASWKY7SGE,27,2,3,1.0,0,0,1,0,3,1.0,asocial
01JVTTC4VB5TX4YM0ASWKY7SGE,27,3,3,1.0,13,2,148,14,3,1.0,asocial
01JVTTC4VB5TX4YM0ASWKY7SGE,27,4,3,1.0,0,0,1,0,3,1.0,asocial
01JVTTC4VB5TX4YM0ASWKY7SGE,27,5,3,1.0,0,0,2,0,3,1.0,asocial
01JVTTC4VB5TX4YM0ASWKY7SGE,27,6,3,1.0,5,0,56,4,3,1.0,asocial
01JVTTC4VB5TX4YM0ASWKY7SGE,27,7,3,1.0,0,0,2,0,3,1.0,asocial
01JVTTC4VB5TX4YM0ASWKY7SGE,27,8,3,1.0,5,1,21,3,3,1.0,asocial
01JVTTC4VB5TX4YM0ASWKY7SGE,27,9,3,1.0,0,0,2,0,3,1.0,asocial
01JVTTC4VB5TX4YM0ASWKY7SGE,28,0,6,1.0,0,0,2,0,3,1.0,asocial
01JVTTC4VB5TX4YM0ASWKY7SGE,28,1,6,1.0,0,0,5,0,3,1.0,asocial
01JVTTC4VB5TX4YM0ASWKY7SGE,28,2,6,1.0,0,0,1,0,3,1.0,asocial
01JVTTC4VB5TX4YM0ASWKY7SGE,28,3,6,1.0,14,2,153,15,3,1.0,asocial
01JVTTC4VB5TX4YM0ASWKY7SGE,28,4,6,1.0,0,0,1,0,3,1.0,asocial
01JVTTC4VB5TX4YM0ASWKY7SGE,28,5,6,1.0,0,0,2,0,3,1.0,asocial
01JVTTC4VB5TX4YM0ASWKY7SGE,28,6,6,1.0,5,0,59,4,3,1.0,asocial
01JVTTC4VB5TX4YM0ASWKY7SGE,28,7,6,1.0,0,0,2,0,3,1.0,asocial
01JVTTC4VB5TX4YM0ASWKY7SGE,28,8,6,1.0,5,1,21,3,3,1.0,asocial
01JVTTC4VB5TX4YM0ASWKY7SGE,28,9,6,1.0,0,0,2,0,3,1.0,asocial
01JVTTC4VB5TX4YM0ASWKY7SGE,29,0,6,1.0,0,0,2,0,6,1.0,asocial
01JVTTC4VB5TX4YM0ASWKY7SGE,29,1,6,1.0,0,0,6,0,6,1.0,asocial
01JVTTC4VB5TX4YM0ASWKY7SGE,29,2,6,1.0,0,0,1,0,6,1.0,asocial
01JVTTC4VB5TX4YM0ASWKY7SGE,29,3,6,1.0,14,2,158,15,6,1.0,asocial
01JVTTC4VB5TX4YM0ASWKY7SGE,29,4,6,1.0,0,0,1,0,6,1.0,asocial
01JVTTC4VB5TX4YM0ASWKY7SGE,29,5,6,1.0,0,0,2,0,6,1.0,asocial
01JVTTC4VB5TX4YM0ASWKY7SGE,29,6,6,1.0,6,0,63,4,6,1.0,asocial
01JVTTC4VB5TX4YM0ASWKY7SGE,29,7,6,1.0,0,0,2,0,6,1.0,asocial
01JVTTC4VB5TX4YM0ASWKY7SGE,29,8,6,1.0,5,1,21,3,6,1.0,asocial
01JVTTC4VB5TX4YM0ASWKY7SGE,29,9,6,1.0,0,0,2,0,6,1.0,asocial
01JVTTC4VB5TX4YM0ASWKY7SGE,30,0,6,0.0,0,0,2,0,6,1.0,asocial
01JVTTC4VB5TX4YM0ASWKY7SGE,30,1,6,0.0,0,0,7,0,6,1.0,asocial
01JVTTC4VB5TX4YM0ASWKY7SGE,30,2,6,0.0,0,0,1,0,6,1.0,asocial
01JVTTC4VB5TX4YM0ASWKY7SGE,30,3,6,0.0,14,2,163,15,6,1.0,asocial
01JVTTC4VB5TX4YM0ASWKY7SGE,30,4,6,0.0,0,0,1,0,6,1.0,asocial
01JVTTC4VB5TX4YM0ASWKY7SGE,30,5,6,0.0,0,0,2,0,6,1.0,asocial
01JVTTC4VB5TX4YM0ASWKY7SGE,30,6,6,0.0,7,0,66,5,6,1.0,asocial
01JVTTC4VB5TX4YM0ASWKY7SGE,30,7,6,0.0,0,0,2,0,6,1.0,asocial
01JVTTC4VB5TX4YM0ASWKY7SGE,30,8,6,0.0,5,1,21,3,6,1.0,asocial
01JVTTC4VB5TX4YM0ASWKY7SGE,30,9,6,0.0,0,0,2,0,6,1.0,asocial
01JVTTC4VB5TX4YM0ASWKY7SGE,31,0,3,1.0,0,0,2,0,6,0.0,asocial
01JVTTC4VB5TX4YM0ASWKY7SGE,31,1,3,1.0,0,0,9,0,6,0.0,asocial
01JVTTC4VB5TX4YM0ASWKY7SGE,31,2,3,1.0,0,0,1,0,6,0.0,asocial
01JVTTC4VB5TX4YM0ASWKY7SGE,31,3,3,1.0,14,2,167,16,6,0.0,asocial
01JVTTC4VB5TX4YM0ASWKY7SGE,31,4,3,1.0,0,0,1,0,6,0.0,asocial
01JVTTC4VB5TX4YM0ASWKY7SGE,31,5,3,1.0,0,0,2,0,6,0.0,asocial
01JVTTC4VB5TX4YM0ASWKY7SGE,31,6,3,1.0,7,1,67,7,6,0.0,asocial
01JVTTC4VB5TX4YM0ASWKY7SGE,31,7,3,1.0,0,0,2,0,6,0.0,asocial
01JVTTC4VB5TX4YM0ASWKY7SGE,31,8,3,1.0,5,1,21,3,6,0.0,asocial
01JVTTC4VB5TX4YM0ASWKY7SGE,31,9,3,1.0,0,0,2,0,6,0.0,asocial
01JVTTC4VB5TX4YM0ASWKY7SGE,32,0,3,1.0,0,0,2,0,3,1.0,asocial
01JVTTC4VB5TX4YM0ASWKY7SGE,32,1,3,1.0,0,0,12,0,3,1.0,asocial
01JVTTC4VB5TX4YM0ASWKY7SGE,32,2,3,1.0,0,0,1,0,3,1.0,asocial
01JVTTC4VB5TX4YM0ASWKY7SGE,32,3,3,1.0,15,2,173,16,3,1.0,asocial
01JVTTC4VB5TX4YM0ASWKY7SGE,32,4,3,1.0,0,0,1,0,3,1.0,asocial
01JVTTC4VB5TX4YM0ASWKY7SGE,32,5,3,1.0,0,0,2,0,3,1.0,asocial
01JVTTC4VB5TX4YM0ASWKY7SGE,32,6,3,1.0,7,1,68,7,3,1.0,asocial
01JVTTC4VB5TX4YM0ASWKY7SGE,32,7,3,1.0,0,0,2,0,3,1.0,asocial
01JVTTC4VB5TX4YM0ASWKY7SGE,32,8,3,1.0,5,1,21,3,3,1.0,asocial
01JVTTC4VB5TX4YM0ASWKY7SGE,32,9,3,1.0,0,0,2,0,3,1.0,asocial
01JVTTC4VB5TX4YM0ASWKY7SGE,33,0,3,1.0,0,0,2,0,3,1.0,asocial
01JVTTC4VB5TX4YM0ASWKY7SGE,33,1,3,1.0,0,0,15,0,3,1.0,asocial
01JVTTC4VB5TX4YM0ASWKY7SGE,33,2,3,1.0,0,0,1,0,3,1.0,asocial
01JVTTC4VB5TX4YM0ASWKY7SGE,33,3,3,1.0,16,2,178,17,3,1.0,asocial
01JVTTC4VB5TX4YM0ASWKY7SGE,33,4,3,1.0,0,0,1,0,3,1.0,asocial
01JVTTC4VB5TX4YM0ASWKY7SGE,33,5,3,1.0,0,0,2,0,3,1.0,asocial
01JVTTC4VB5TX4YM0ASWKY7SGE,33,6,3,1.0,7,1,69,7,3,1.0,asocial
01JVTTC4VB5TX4YM0ASWKY7SGE,33,7,3,1.0,0,0,2,0,3,1.0,asocial
01JVTTC4VB5TX4YM0ASWKY7SGE,33,8,3,1.0,5,1,21,3,3,1.0,asocial
01JVTTC4VB5TX4YM0ASWKY7SGE,33,9,3,1.0,0,0,2,0,3,1.0,asocial
01JVTTC4VB5TX4YM0ASWKY7SGE,34,0,3,1.0,0,0,2,0,3,1.0,asocial
01JVTTC4VB5TX4YM0ASWKY7SGE,34,1,3,1.0,0,0,18,0,3,1.0,asocial
01JVTTC4VB5TX4YM0ASWKY7SGE,34,2,3,1.0,0,0,1,0,3,1.0,asocial
01JVTTC4VB5TX4YM0ASWKY7SGE,34,3,3,1.0,17,2,182,19,3,1.0,asocial
01JVTTC4VB5TX4YM0ASWKY7SGE,34,4,3,1.0,0,0,1,0,3,1.0,asocial
01JVTTC4VB5TX4YM0ASWKY7SGE,34,5,3,1.0,0,0,2,0,3,1.0,asocial
01JVTTC4VB5TX4YM0ASWKY7SGE,34,6,3,1.0,7,1,70,7,3,1.0,asocial
01JVTTC4VB5TX4YM0ASWKY7SGE,34,7,3,1.0,0,0,2,0,3,1.0,asocial
01JVTTC4VB5TX4YM0ASWKY7SGE,34,8,3,1.0,5,1,21,3,3,1.0,asocial
01JVTTC4VB5TX4YM0ASWKY7SGE,34,9,3,1.0,0,0,2,0,3,1.0,asocial
01JVTTC4VB5TX4YM0ASWKY7SGE,35,0,3,1.0,0,0,2,0,3,1.0,asocial
01JVTTC4VB5TX4YM0ASWKY7SGE,35,1,3,1.0,0,0,20,1,3,1.0,asocial
01JVTTC4VB5TX4YM0ASWKY7SGE,35,2,3,1.0,0,0,1,0,3,1.0,asocial
01JVTTC4VB5TX4YM0ASWKY7SGE,35,3,3,1.0,18,2,188,19,3,1.0,asocial
01JVTTC4VB5TX4YM0ASWKY7SGE,35,4,3,1.0,0,0,1,0,3,1.0,asocial
01JVTTC4VB5TX4YM0ASWKY7SGE,35,5,3,1.0,0,0,2,0,3,1.0,asocial
01JVTTC4VB5TX4YM0ASWKY7SGE,35,6,3,1.0,7,1,71,7,3,1.0,asocial
01JVTTC4VB5TX4YM0ASWKY7SGE,35,7,3,1.0,0,0,2,0,3,1.0,asocial
01JVTTC4VB5TX4YM0ASWKY7SGE,35,8,3,1.0,5,1,21,3,3,1.0,asocial
01JVTTC4VB5TX4YM0ASWKY7SGE,35,9,3,1.0,0,0,2,0,3,1.0,asocial
01JVTTC4VB5TX4YM0ASWKY7SGE,36,0,3,1.0,0,0,2,0,3,1.0,asocial
01JVTTC4VB5TX4YM0ASWKY7SGE,36,1,3,1.0,0,0,23,1,3,1.0,asocial
01JVTTC4VB5TX4YM0ASWKY7SGE,36,2,3,1.0,0,0,1,0,3,1.0,asocial
01JVTTC4VB5TX4YM0ASWKY7SGE,36,3,3,1.0,19,2,194,20,3,1.0,asocial
01JVTTC4VB5TX4YM0ASWKY7SGE,36,4,3,1.0,0,0,1,0,3,1.0,asocial
01JVTTC4VB5TX4YM0ASWKY7SGE,36,5,3,1.0,0,0,2,0,3,1.0,asocial
01JVTTC4VB5TX4YM0ASWKY7SGE,36,6,3,1.0,7,1,71,7,3,1.0,asocial
01JVTTC4VB5TX4YM0ASWKY7SGE,36,7,3,1.0,0,0,2,0,3,1.0,asocial
01JVTTC4VB5TX4YM0ASWKY7SGE,36,8,3,1.0,5,1,21,3,3,1.0,asocial
01JVTTC4VB5TX4YM0ASWKY7SGE,36,9,3,1.0,0,0,2,0,3,1.0,asocial
01JVTTC4VB5TX4YM0ASWKY7SGE,37,0,3,0.0,0,0,2,0,3,1.0,asocial
01JVTTC4VB5TX4YM0ASWKY7SGE,37,1,3,0.0,0,0,25,1,3,1.0,asocial
01JVTTC4VB5TX4YM0ASWKY7SGE,37,2,3,0.0,0,0,1,0,3,1.0,asocial
01JVTTC4VB5TX4YM0ASWKY7SGE,37,3,3,0.0,20,2,200,20,3,1.0,asocial
01JVTTC4VB5TX4YM0ASWKY7SGE,37,4,3,0.0,0,0,1,0,3,1.0,asocial
01JVTTC4VB5TX4YM0ASWKY7SGE,37,5,3,0.0,0,0,2,0,3,1.0,asocial
01JVTTC4VB5TX4YM0ASWKY7SGE,37,6,3,0.0,7,1,72,7,3,1.0,asocial
01JVTTC4VB5TX4YM0ASWKY7SGE,37,7,3,0.0,0,0,3,0,3,1.0,asocial
01JVTTC4VB5TX4YM0ASWKY7SGE,37,8,3,0.0,5,1,21,3,3,1.0,asocial
01JVTTC4VB5TX4YM0ASWKY7SGE,37,9,3,0.0,0,0,2,0,3,1.0,asocial
01JVTTC4VB5TX4YM0ASWKY7SGE,38,0,6,1.0,0,0,2,0,3,0.0,asocial
01JVTTC4VB5TX4YM0ASWKY7SGE,38,1,6,1.0,0,0,27,1,3,0.0,asocial
01JVTTC4VB5TX4YM0ASWKY7SGE,38,2,6,1.0,0,0,2,0,3,0.0,asocial
01JVTTC4VB5TX4YM0ASWKY7SGE,38,3,6,1.0,20,3,204,22,3,0.0,asocial
01JVTTC4VB5TX4YM0ASWKY7SGE,38,4,6,1.0,0,0,1,0,3,0.0,asocial
01JVTTC4VB5TX4YM0ASWKY7SGE,38,5,6,1.0,0,0,2,0,3,0.0,asocial
01JVTTC4VB5TX4YM0ASWKY7SGE,38,6,6,1.0,7,1,73,7,3,0.0,asocial
01JVTTC4VB5TX4YM0ASWKY7SGE,38,7,6,1.0,0,0,3,0,3,0.0,asocial
01JVTTC4VB5TX4YM0ASWKY7SGE,38,8,6,1.0,5,1,21,3,3,0.0,asocial
01JVTTC4VB5TX4YM0ASWKY7SGE,38,9,6,1.0,0,0,2,0,3,0.0,asocial
01JVTTC4VB5TX4YM0ASWKY7SGE,39,0,6,1.0,0,0,2,0,6,1.0,asocial
01JVTTC4VB5TX4YM0ASWKY7SGE,39,1,6,1.0,0,0,29,1,6,1.0,asocial
01JVTTC4VB5TX4YM0ASWKY7SGE,39,2,6,1.0,0,0,3,0,6,1.0,asocial
01JVTTC4VB5TX4YM0ASWKY7SGE,39,3,6,1.0,20,3,208,23,6,1.0,asocial
01JVTTC4VB5TX4YM0ASWKY7SGE,39,4,6,1.0,0,0,1,0,6,1.0,asocial
01JVTTC4VB5TX4YM0ASWKY7SGE,39,5,6,1.0,0,0,2,0,6,1.0,asocial
01JVTTC4VB5TX4YM0ASWKY7SGE,39,6,6,1.0,8,1,75,7,6,1.0,asocial
01JVTTC4VB5TX4YM0ASWKY7SGE,39,7,6,1.0,0,0,3,0,6,1.0,asocial
01JVTTC4VB5TX4YM0ASWKY7SGE,39,8,6,1.0,5,1,21,3,6,1.0,asocial
01JVTTC4VB5TX4YM0ASWKY7SGE,39,9,6,1.0,0,0,2,0,6,1.0,asocial
01JVTTC4VB5TX4YM0ASWKY7SGE,40,0,6,1.0,0,0,2,0,6,1.0,asocial
01JVTTC4VB5TX4YM0ASWKY7SGE,40,1,6,1.0,0,0,31,1,6,1.0,asocial
01JVTTC4VB5TX4YM0ASWKY7SGE,40,2,6,1.0,0,0,3,0,6,1.0,asocial
01JVTTC4VB5TX4YM0ASWKY7SGE,40,3,6,1.0,20,3,213,23,6,1.0,asocial
01JVTTC4VB5TX4YM0ASWKY7SGE,40,4,6,1.0,0,0,1,0,6,1.0,asocial
01JVTTC4VB5TX4YM0ASWKY7SGE,40,5,6,1.0,0,0,2,0,6,1.0,asocial
01JVTTC4VB5TX4YM0ASWKY7SGE,40,6,6,1.0,9,1,77,7,6,1.0,asocial
01JVTTC4VB5TX4YM0ASWKY7SGE,40,7,6,1.0,0,0,4,0,6,1.0,asocial
01JVTTC4VB5TX4YM0ASWKY7SGE,40,8,6,1.0,5,1,21,3,6,1.0,asocial
01JVTTC4VB5TX4YM0ASWKY7SGE,40,9,6,1.0,0,0,2,0,6,1.0,asocial
01JVTTC4VB5TX4YM0ASWKY7SGE,41,0,6,1.0,0,0,2,0,6,1.0,asocial
01JVTTC4VB5TX4YM0ASWKY7SGE,41,1,6,1.0,0,0,33,1,6,1.0,asocial
01JVTTC4VB5TX4YM0ASWKY7SGE,41,2,6,1.0,0,0,3,0,6,1.0,asocial
01JVTTC4VB5TX4YM0ASWKY7SGE,41,3,6,1.0,20,3,218,23,6,1.0,asocial
01JVTTC4VB5TX4YM0ASWKY7SGE,41,4,6,1.0,0,0,1,0,6,1.0,asocial
01JVTTC4VB5TX4YM0ASWKY7SGE,41,5,6,1.0,0,0,2,0,6,1.0,asocial
01JVTTC4VB5TX4YM0ASWKY7SGE,41,6,6,1.0,10,1,79,7,6,1.0,asocial
01JVTTC4VB5TX4YM0ASWKY7SGE,41,7,6,1.0,0,0,5,0,6,1.0,asocial
01JVTTC4VB5TX4YM0ASWKY7SGE,41,8,6,1.0,5,1,21,3,6,1.0,asocial
01JVTTC4VB5TX4YM0ASWKY7SGE,41,9,6,1.0,0,0,2,0,6,1.0,asocial
01JVTTC4VB5TX4YM0ASWKY7SGE,42,0,6,1.0,0,0,2,0,6,1.0,asocial
01JVTTC4VB5TX4YM0ASWKY7SGE,42,1,6,1.0,0,0,35,1,6,1.0,asocial
01JVTTC4VB5TX4YM0ASWKY7SGE,42,2,6,1.0,0,0,3,0,6,1.0,asocial
01JVTTC4VB5TX4YM0ASWKY7SGE,42,3,6,1.0,20,3,222,24,6,1.0,asocial
01JVTTC4VB5TX4YM0ASWKY7SGE,42,4,6,1.0,0,0,1,0,6,1.0,asocial
01JVTTC4VB5TX4YM0ASWKY7SGE,42,5,6,1.0,0,0,2,0,6,1.0,asocial
01JVTTC4VB5TX4YM0ASWKY7SGE,42,6,6,1.0,11,1,81,7,6,1.0,asocial
01JVTTC4VB5TX4YM0ASWKY7SGE,42,7,6,1.0,0,0,6,0,6,1.0,asocial
01JVTTC4VB5TX4YM0ASWKY7SGE,42,8,6,1.0,5,1,21,3,6,1.0,asocial
01JVTTC4VB5TX4YM0ASWKY7SGE,42,9,6,1.0,0,0,2,0,6,1.0,asocial
01JVTTC4VB5TX4YM0ASWKY7SGE,43,0,6,1.0,0,0,2,0,6,1.0,asocial
01JVTTC4VB5TX4YM0ASWKY7SGE,43,1,6,1.0,0,0,37,1,6,1.0,asocial
01JVTTC4VB5TX4YM0ASWKY7SGE,43,2,6,1.0,0,0,3,0,6,1.0,asocial
01JVTTC4VB5TX4YM0ASWKY7SGE,43,3,6,1.0,20,3,227,24,6,1.0,asocial
01JVTTC4VB5TX4YM0ASWKY7SGE,43,4,6,1.0,0,0,1,0,6,1.0,asocial
01JVTTC4VB5TX4YM0ASWKY7SGE,43,5,6,1.0,0,0,2,0,6,1.0,asocial
01JVTTC4VB5TX4YM0ASWKY7SGE,43,6,6,1.0,12,1,83,7,6,1.0,asocial
01JVTTC4VB5TX4YM0ASWKY7SGE,43,7,6,1.0,0,0,7,0,6,1.0,asocial
01JVTTC4VB5TX4YM0ASWKY7SGE,43,8,6,1.0,5,1,21,3,6,1.0,asocial
01JVTTC4VB5TX4YM0ASWKY7SGE,43,9,6,1.0,0,0,2,0,6,1.0,asocial
01JVTTC4VB5TX4YM0ASWKY7SGE,44,0,3,1.0,0,0,2,0,6,1.0,asocial
01JVTTC4VB5TX4YM0ASWKY7SGE,44,1,3,1.0,0,0,39,1,6,1.0,asocial
01JVTTC4VB5TX4YM0ASWKY7SGE,44,2,3,1.0,0,0,3,0,6,1.0,asocial
01JVTTC4VB5TX4YM0ASWKY7SGE,44,3,3,1.0,20,3,231,25,6,1.0,asocial
01JVTTC4VB5TX4YM0ASWKY7SGE,44,4,3,1.0,0,0,1,0,6,1.0,asocial
01JVTTC4VB5TX4YM0ASWKY7SGE,44,5,3,1.0,0,0,2,0,6,1.0,asocial
01JVTTC4VB5TX4YM0ASWKY7SGE,44,6,3,1.0,13,1,85,7,6,1.0,asocial
01JVTTC4VB5TX4YM0ASWKY7SGE,44,7,3,1.0,0,0,8,0,6,1.0,asocial
01JVTTC4VB5TX4YM0ASWKY7SGE,44,8,3,1.0,5,1,21,3,6,1.0,asocial
01JVTTC4VB5TX4YM0ASWKY7SGE,44,9,3,1.0,0,0,2,0,6,1.0,asocial
01JVTTC4VB5TX4YM0ASWKY7SGE,45,0,6,1.0,0,0,2,0,3,1.0,asocial
01JVTTC4VB5TX4YM0ASWKY7SGE,45,1,6,1.0,0,0,41,1,3,1.0,asocial
01JVTTC4VB5TX4YM0ASWKY7SGE,45,2,6,1.0,0,0,3,0,3,1.0,asocial
01JVTTC4VB5TX4YM0ASWKY7SGE,45,3,6,1.0,21,3,237,25,3,1.0,asocial
01JVTTC4VB5TX4YM0ASWKY7SGE,45,4,6,1.0,0,0,1,0,3,1.0,asocial
01JVTTC4VB5TX4YM0ASWKY7SGE,45,5,6,1.0,0,0,2,0,3,1.0,asocial
01JVTTC4VB5TX4YM0ASWKY7SGE,45,6,6,1.0,13,1,86,7,3,1.0,asocial
01JVTTC4VB5TX4YM0ASWKY7SGE,45,7,6,1.0,0,0,9,0,3,1.0,asocial
01JVTTC4VB5TX4YM0ASWKY7SGE,45,8,6,1.0,5,1,21,3,3,1.0,asocial
01JVTTC4VB5TX4YM0ASWKY7SGE,45,9,6,1.0,0,0,2,0,3,1.0,asocial
01JVTTC4VB5TX4YM0ASWKY7SGE,46,0,6,1.0,0,0,2,0,6,1.0,asocial
01JVTTC4VB5TX4YM0ASWKY7SGE,46,1,6,1.0,0,0,43,1,6,1.0,asocial
01JVTTC4VB5TX4YM0ASWKY7SGE,46,2,6,1.0,0,0,3,0,6,1.0,asocial
01JVTTC4VB5TX4YM0ASWKY7SGE,46,3,6,1.0,21,3,242,25,6,1.0,asocial
01JVTTC4VB5TX4YM0ASWKY7SGE,46,4,6,1.0,0,0,1,0,6,1.0,asocial
01JVTTC4VB5TX4YM0ASWKY7SGE,46,5,6,1.0,0,0,2,0,6,1.0,asocial
01JVTTC4VB5TX4YM0ASWKY7SGE,46,6,6,1.0,14,1,88,7,6,1.0,asocial
01JVTTC4VB5TX4YM0ASWKY7SGE,46,7,6,1.0,0,0,10,0,6,1.0,asocial
01JVTTC4VB5TX4YM0ASWKY7SGE,46,8,6,1.0,5,1,21,3,6,1.0,asocial
01JVTTC4VB5TX4YM0ASWKY7SGE,46,9,6,1.0,0,0,2,0,6,1.0,asocial
01JVTTC4VB5TX4YM0ASWKY7SGE,47,0,6,1.0,0,0,2,0,6,1.0,asocial
01JVTTC4VB5TX4YM0ASWKY7SGE,47,1,6,1.0,0,0,45,1,6,1.0,asocial
01JVTTC4VB5TX4YM0ASWKY7SGE,47,2,6,1.0,0,0,3,0,6,1.0,asocial
01JVTTC4VB5TX4YM0ASWKY7SGE,47,3,6,1.0,21,3,246,26,6,1.0,asocial
01JVTTC4VB5TX4YM0ASWKY7SGE,47,4,6,1.0,0,0,1,0,6,1.0,asocial
01JVTTC4VB5TX4YM0ASWKY7SGE,47,5,6,1.0,0,0,2,0,6,1.0,asocial
01JVTTC4VB5TX4YM0ASWKY7SGE,47,6,6,1.0,15,1,90,7,6,1.0,asocial
01JVTTC4VB5TX4YM0ASWKY7SGE,47,7,6,1.0,0,0,11,0,6,1.0,asocial
01JVTTC4VB5TX4YM0ASWKY7SGE,47,8,6,1.0,5,1,21,3,6,1.0,asocial
01JVTTC4VB5TX4YM0ASWKY7SGE,47,9,6,1.0,0,0,2,0,6,1.0,asocial
01JVTTC4VB5TX4YM0ASWKY7SGE,48,0,6,0.0,0,0,2,0,6,1.0,asocial
01JVTTC4VB5TX4YM0ASWKY7SGE,48,1,6,0.0,0,0,47,1,6,1.0,asocial
01JVTTC4VB5TX4YM0ASWKY7SGE,48,2,6,0.0,0,0,3,0,6,1.0,asocial
01JVTTC4VB5TX4YM0ASWKY7SGE,48,3,6,0.0,21,3,250,27,6,1.0,asocial
01JVTTC4VB5TX4YM0ASWKY7SGE,48,4,6,0.0,0,0,1,0,6,1.0,asocial
01JVTTC4VB5TX4YM0ASWKY7SGE,48,5,6,0.0,0,0,2,0,6,1.0,asocial
01JVTTC4VB5TX4YM0ASWKY7SGE,48,6,6,0.0,16,1,92,7,6,1.0,asocial
01JVTTC4VB5TX4YM0ASWKY7SGE,48,7,6,0.0,0,0,12,0,6,1.0,asocial
01JVTTC4VB5TX4YM0ASWKY7SGE,48,8,6,0.0,5,1,21,3,6,1.0,asocial
01JVTTC4VB5TX4YM0ASWKY7SGE,48,9,6,0.0,0,0,2,0,6,1.0,asocial
01JVTTC4VB5TX4YM0ASWKY7SGE,49,0,6,1.0,0,0,2,0,6,0.0,asocial
01JVTTC4VB5TX4YM0ASWKY7SGE,49,1,6,1.0,0,0,48,1,6,0.0,asocial
01JVTTC4VB5TX4YM0ASWKY7SGE,49,2,6,1.0,0,0,3,0,6,0.0,asocial
01JVTTC4VB5TX4YM0ASWKY7SGE,49,3,6,1.0,21,3,254,28,6,0.0,asocial
01JVTTC4VB5TX4YM0ASWKY7SGE,49,4,6,1.0,0,0,1,0,6,0.0,asocial
01JVTTC4VB5TX4YM0ASWKY7SGE,49,5,6,1.0,0,0,2,0,6,0.0,asocial
01JVTTC4VB5TX4YM0ASWKY7SGE,49,6,6,1.0,16,2,93,8,6,0.0,asocial
01JVTTC4VB5TX4YM0ASWKY7SGE,49,7,6,1.0,0,0,14,0,6,0.0,asocial
01JVTTC4VB5TX4YM0ASWKY7SGE,49,8,6,1.0,5,1,21,3,6,0.0,asocial
01JVTTC4VB5TX4YM0ASWKY7SGE,49,9,6,1.0,0,0,2,0,6,0.0,asocial
01JVTTC4VB5TX4YM0ASWKY7SGE,50,0,3,1.0,0,0,2,0,6,1.0,asocial
01JVTTC4VB5TX4YM0ASWKY7SGE,50,1,3,1.0,0,0,49,1,6,1.0,asocial
01JVTTC4VB5TX4YM0ASWKY7SGE,50,2,3,1.0,0,0,3,0,6,1.0,asocial
01JVTTC4VB5TX4YM0ASWKY7SGE,50,3,3,1.0,21,3,257,30,6,1.0,asocial
01JVTTC4VB5TX4YM0ASWKY7SGE,50,4,3,1.0,0,0,1,0,6,1.0,asocial
01JVTTC4VB5TX4YM0ASWKY7SGE,50,5,3,1.0,0,0,2,0,6,1.0,asocial
01JVTTC4VB5TX4YM0ASWKY7SGE,50,6,3,1.0,17,2,95,8,6,1.0,asocial
01JVTTC4VB5TX4YM0ASWKY7SGE,50,7,3,1.0,0,0,16,0,6,1.0,asocial
01JVTTC4VB5TX4YM0ASWKY7SGE,50,8,3,1.0,5,1,21,3,6,1.0,asocial
01JVTTC4VB5TX4YM0ASWKY7SGE,50,9,3,1.0,0,0,2,0,6,1.0,asocial
01JVTTC4VB5TX4YM0ASWKY7SGE,51,0,6,1.0,0,0,2,0,3,1.0,asocial
01JVTTC4VB5TX4YM0ASWKY7SGE,51,1,6,1.0,0,0,51,1,3,1.0,asocial
01JVTTC4VB5TX4YM0ASWKY7SGE,51,2,6,1.0,0,0,3,0,3,1.0,asocial
01JVTTC4VB5TX4YM0ASWKY7SGE,51,3,6,1.0,22,3,262,31,3,1.0,asocial
01JVTTC4VB5TX4YM0ASWKY7SGE,51,4,6,1.0,0,0,1,0,3,1.0,asocial
01JVTTC4VB5TX4YM0ASWKY7SGE,51,5,6,1.0,0,0,2,0,3,1.0,asocial
01JVTTC4VB5TX4YM0ASWKY7SGE,51,6,6,1.0,17,2,96,8,3,1.0,asocial
01JVTTC4VB5TX4YM0ASWKY7SGE,51,7,6,1.0,0,0,17,0,3,1.0,asocial
01JVTTC4VB5TX4YM0ASWKY7SGE,51,8,6,1.0,5,1,21,3,3,1.0,asocial
01JVTTC4VB5TX4YM0ASWKY7SGE,51,9,6,1.0,0,0,2,0,3,1.0,asocial
01JVTTCV3XRYR5EQMHJG8G23K3,1,0,3,1.0,0,0,0,0,-1,,asocial
01JVTTCV3XRYR5EQMHJG8G23K3,1,1,3,1.0,0,0,0,0,-1,,asocial
01JVTTCV3XRYR5EQMHJG8G23K3,1,2,3,1.0,0,0,0,0,-1,,asocial
01JVTTCV3XRYR5EQMHJG8G23K3,1,3,3,1.0,0,0,0,0,-1,,asocial
01JVTTCV3XRYR5EQMHJG8G23K3,1,4,3,1.0,0,0,0,0,-1,,asocial
01JVTTCV3XRYR5EQMHJG8G23K3,1,5,3,1.0,0,0,0,0,-1,,asocial
01JVTTCV3XRYR5EQMHJG8G23K3,1,6,3,1.0,0,0,0,0,-1,,asocial
01JVTTCV3XRYR5EQMHJG8G23K3,1,7,3,1.0,0,0,0,0,-1,,asocial
01JVTTCV3XRYR5EQMHJG8G23K3,1,8,3,1.0,0,0,0,0,-1,,asocial
01JVTTCV3XRYR5EQMHJG8G23K3,1,9,3,1.0,0,0,0,0,-1,,asocial
01JVTTCV3XRYR5EQMHJG8G23K3,2,0,5,1.0,0,0,1,0,3,1.0,asocial
01JVTTCV3XRYR5EQMHJG8G23K3,2,1,5,1.0,0,0,1,0,3,1.0,asocial
01JVTTCV3XRYR5EQMHJG8G23K3,2,2,5,1.0,0,0,1,0,3,1.0,asocial
01JVTTCV3XRYR5EQMHJG8G23K3,2,3,5,1.0,1,0,1,0,3,1.0,asocial
01JVTTCV3XRYR5EQMHJG8G23K3,2,4,5,1.0,0,0,1,0,3,1.0,asocial
01JVTTCV3XRYR5EQMHJG8G23K3,2,5,5,1.0,0,0,1,0,3,1.0,asocial
01JVTTCV3XRYR5EQMHJG8G23K3,2,6,5,1.0,0,0,1,0,3,1.0,asocial
01JVTTCV3XRYR5EQMHJG8G23K3,2,7,5,1.0,0,0,1,0,3,1.0,asocial
01JVTTCV3XRYR5EQMHJG8G23K3,2,8,5,1.0,0,0,1,0,3,1.0,asocial
01JVTTCV3XRYR5EQMHJG8G23K3,2,9,5,1.0,0,0,1,0,3,1.0,asocial
01JVTTCV3XRYR5EQMHJG8G23K3,3,0,3,1.0,0,0,2,0,5,1.0,asocial
01JVTTCV3XRYR5EQMHJG8G23K3,3,1,3,1.0,0,0,2,0,5,1.0,asocial
01JVTTCV3XRYR5EQMHJG8G23K3,3,2,3,1.0,0,0,1,0,5,1.0,asocial
01JVTTCV3XRYR5EQMHJG8G23K3,3,3,3,1.0,1,0,3,0,5,1.0,asocial
01JVTTCV3XRYR5EQMHJG8G23K3,3,4,3,1.0,0,0,1,0,5,1.0,asocial
01JVTTCV3XRYR5EQMHJG8G23K3,3,5,3,1.0,1,0,2,0,5,1.0,asocial
01JVTTCV3XRYR5EQMHJG8G23K3,3,6,3,1.0,0,0,3,0,5,1.0,asocial
01JVTTCV3XRYR5EQMHJG8G23K3,3,7,3,1.0,0,0,2,0,5,1.0,asocial
01JVTTCV3XRYR5EQMHJG8G23K3,3,8,3,1.0,0,0,2,0,5,1.0,asocial
01JVTTCV3XRYR5EQMHJG8G23K3,3,9,3,1.0,0,0,2,0,5,1.0,asocial
01JVTTCV3XRYR5EQMHJG8G23K3,4,0,3,1.0,0,0,2,0,3,1.0,asocial
01JVTTCV3XRYR5EQMHJG8G23K3,4,1,3,1.0,0,0,2,0,3,1.0,asocial
01JVTTCV3XRYR5EQMHJG8G23K3,4,2,3,1.0,0,0,1,0,3,1.0,asocial
01JVTTCV3XRYR5EQMHJG8G23K3,4,3,3,1.0,2,0,9,0,3,1.0,asocial
01JVTTCV3XRYR5EQMHJG8G23K3,4,4,3,1.0,0,0,1,0,3,1.0,asocial
01JVTTCV3XRYR5EQMHJG8G23K3,4,5,3,1.0,1,0,2,0,3,1.0,asocial
01JVTTCV3XRYR5EQMHJG8G23K3,4,6,3,1.0,0,0,6,0,3,1.0,asocial
01JVTTCV3XRYR5EQMHJG8G23K3,4,7,3,1.0,0,0,2,0,3,1.0,asocial
01JVTTCV3XRYR5EQMHJG8G23K3,4,8,3,1.0,0,0,3,0,3,1.0,asocial
01JVTTCV3XRYR5EQMHJG8G23K3,4,9,3,1.0,0,0,2,0,3,1.0,asocial
01JVTTCV3XRYR5EQMHJG8G23K3,5,0,3,1.0,0,0,2,0,3,1.0,asocial
01JVTTCV3XRYR5EQMHJG8G23K3,5,1,3,1.0,0,0,2,0,3,1.0,asocial
01JVTTCV3XRYR5EQMHJG8G23K3,5,2,3,1.0,0,0,1,0,3,1.0,asocial
01JVTTCV3XRYR5EQMHJG8G23K3,5,3,3,1.0,3,0,18,0,3,1.0,asocial
01JVTTCV3XRYR5EQMHJG8G23K3,5,4,3,1.0,0,0,1,0,3,1.0,asocial
01JVTTCV3XRYR5EQMHJG8G23K3,5,5,3,1.0,1,0,2,0,3,1.0,asocial
01JVTTCV3XRYR5EQMHJG8G23K3,5,6,3,1.0,0,0,6,0,3,1.0,asocial
01JVTTCV3XRYR5EQMHJG8G23K3,5,7,3,1.0,0,0,2,0,3,1.0,asocial
01JVTTCV3XRYR5EQMHJG8G23K3,5,8,3,1.0,0,0,4,0,3,1.0,asocial
01JVTTCV3XRYR5EQMHJG8G23K3,5,9,3,1.0,0,0,2,0,3,1.0,asocial
01JVTTCV3XRYR5EQMHJG8G23K3,6,0,3,1.0,0,0,2,0,3,1.0,asocial
01JVTTCV3XRYR5EQMHJG8G23K3,6,1,3,1.0,0,0,2,0,3,1.0,asocial
01JVTTCV3XRYR5EQMHJG8G23K3,6,2,3,1.0,0,0,1,0,3,1.0,asocial
01JVTTCV3XRYR5EQMHJG8G23K3,6,3,3,1.0,4,0,25,2,3,1.0,asocial
01JVTTCV3XRYR5EQMHJG8G23K3,6,4,3,1.0,0,0,1,0,3,1.0,asocial
01JVTTCV3XRYR5EQMHJG8G23K3,6,5,3,1.0,1,0,2,0,3,1.0,asocial
01JVTTCV3XRYR5EQMHJG8G23K3,6,6,3,1.0,0,0,7,0,3,1.0,asocial
01JVTTCV3XRYR5EQMHJG8G23K3,6,7,3,1.0,0,0,2,0,3,1.0,asocial
01JVTTCV3XRYR5EQMHJG8G23K3,6,8,3,1.0,0,0,4,0,3,1.0,asocial
01JVTTCV3XRYR5EQMHJG8G23K3,6,9,3,1.0,0,0,2,0,3,1.0,asocial
01JVTTCV3XRYR5EQMHJG8G23K3,7,0,3,1.0,0,0,2,0,3,1.0,asocial
01JVTTCV3XRYR5EQMHJG8G23K3,7,1,3,1.0,0,0,2,0,3,1.0,asocial
01JVTTCV3XRYR5EQMHJG8G23K3,7,2,3,1.0,0,0,1,0,3,1.0,asocial
01JVTTCV3XRYR5EQMHJG8G23K3,7,3,3,1.0,5,0,32,4,3,1.0,asocial
01JVTTCV3XRYR5EQMHJG8G23K3,7,4,3,1.0,0,0,1,0,3,1.0,asocial
01JVTTCV3XRYR5EQMHJG8G23K3,7,5,3,1.0,1,0,2,0,3,1.0,asocial
01JVTTCV3XRYR5EQMHJG8G23K3,7,6,3,1.0,0,0,8,0,3,1.0,asocial
01JVTTCV3XRYR5EQMHJG8G23K3,7,7,3,1.0,0,0,2,0,3,1.0,asocial
01JVTTCV3XRYR5EQMHJG8G23K3,7,8,3,1.0,0,0,4,0,3,1.0,asocial
01JVTTCV3XRYR5EQMHJG8G23K3,7,9,3,1.0,0,0,2,0,3,1.0,asocial
01JVTTCV3XRYR5EQMHJG8G23K3,8,0,3,1.0,0,0,2,0,3,1.0,asocial
01JVTTCV3XRYR5EQMHJG8G23K3,8,1,3,1.0,0,0,2,0,3,1.0,asocial
01JVTTCV3XRYR5EQMHJG8G23K3,8,2,3,1.0,0,0,1,0,3,1.0,asocial
01JVTTCV3XRYR5EQMHJG8G23K3,8,3,3,1.0,6,0,38,4,3,1.0,asocial
01JVTTCV3XRYR5EQMHJG8G23K3,8,4,3,1.0,0,0,1,0,3,1.0,asocial
01JVTTCV3XRYR5EQMHJG8G23K3,8,5,3,1.0,1,0,2,0,3,1.0,asocial
01JVTTCV3XRYR5EQMHJG8G23K3,8,6,3,1.0,0,0,12,0,3,1.0,asocial
01JVTTCV3XRYR5EQMHJG8G23K3,8,7,3,1.0,0,0,2,0,3,1.0,asocial
01JVTTCV3XRYR5EQMHJG8G23K3,8,8,3,1.0,0,0,4,0,3,1.0,asocial
01JVTTCV3XRYR5EQMHJG8G23K3,8,9,3,1.0,0,0,2,0,3,1.0,asocial
01JVTTCV3XRYR5EQMHJG8G23K3,9,0,3,1.0,0,0,2,0,3,1.0,asocial
01JVTTCV3XRYR5EQMHJG8G23K3,9,1,3,1.0,0,0,2,0,3,1.0,asocial
01JVTTCV3XRYR5EQMHJG8G23K3,9,2,3,1.0,0,0,1,0,3,1.0,asocial
01JVTTCV3XRYR5EQMHJG8G23K3,9,3,3,1.0,7,0,45,4,3,1.0,asocial
01JVTTCV3XRYR5EQMHJG8G23K3,9,4,3,1.0,0,0,1,0,3,1.0,asocial
01JVTTCV3XRYR5EQMHJG8G23K3,9,5,3,1.0,1,0,2,0,3,1.0,asocial
01JVTTCV3XRYR5EQMHJG8G23K3,9,6,3,1.0,0,0,15,0,3,1.0,asocial
01JVTTCV3XRYR5EQMHJG8G23K3,9,7,3,1.0,0,0,2,0,3,1.0,asocial
01JVTTCV3XRYR5EQMHJG8G23K3,9,8,3,1.0,0,0,4,0,3,1.0,asocial
01JVTTCV3XRYR5EQMHJG8G23K3,9,9,3,1.0,0,0,2,0,3,1.0,asocial
01JVTTCV3XRYR5EQMHJG8G23K3,10,0,6,1.0,0,0,2,0,3,1.0,asocial
01JVTTCV3XRYR5EQMHJG8G23K3,10,1,6,1.0,0,0,2,0,3,1.0,asocial
01JVTTCV3XRYR5EQMHJG8G23K3,10,2,6,1.0,0,0,1,0,3,1.0,asocial
01JVTTCV3XRYR5EQMHJG8G23K3,10,3,6,1.0,8,0,52,4,3,1.0,asocial
01JVTTCV3XRYR5EQMHJG8G23K3,10,4,6,1.0,0,0,1,0,3,1.0,asocial
01JVTTCV3XRYR5EQMHJG8G23K3,10,5,6,1.0,1,0,2,0,3,1.0,asocial
01JVTTCV3XRYR5EQMHJG8G23K3,10,6,6,1.0,0,0,18,0,3,1.0,asocial
01JVTTCV3XRYR5EQMHJG8G23K3,10,7,6,1.0,0,0,2,0,3,1.0,asocial
01JVTTCV3XRYR5EQMHJG8G23K3,10,8,6,1.0,0,0,4,0,3,1.0,asocial
01JVTTCV3XRYR5EQMHJG8G23K3,10,9,6,1.0,0,0,2,0,3,1.0,asocial
01JVTTCV3XRYR5EQMHJG8G23K3,11,0,6,1.0,0,0,2,0,6,1.0,asocial
01JVTTCV3XRYR5EQMHJG8G23K3,11,1,6,1.0,0,0,2,0,6,1.0,asocial
01JVTTCV3XRYR5EQMHJG8G23K3,11,2,6,1.0,0,0,1,0,6,1.0,asocial
01JVTTCV3XRYR5EQMHJG8G23K3,11,3,6,1.0,8,0,57,5,6,1.0,asocial
01JVTTCV3XRYR5EQMHJG8G23K3,11,4,6,1.0,0,0,1,0,6,1.0,asocial
01JVTTCV3XRYR5EQMHJG8G23K3,11,5,6,1.0,1,0,2,0,6,1.0,asocial
01JVTTCV3XRYR5EQMHJG8G23K3,11,6,6,1.0,1,0,22,0,6,1.0,asocial
01JVTTCV3XRYR5EQMHJG8G23K3,11,7,6,1.0,0,0,2,0,6,1.0,asocial
01JVTTCV3XRYR5EQMHJG8G23K3,11,8,6,1.0,0,0,4,0,6,1.0,asocial
01JVTTCV3XRYR5EQMHJG8G23K3,11,9,6,1.0,0,0,2,0,6,1.0,asocial
01JVTTCV3XRYR5EQMHJG8G23K3,12,0,3,1.0,0,0,2,0,6,1.0,asocial
01JVTTCV3XRYR5EQMHJG8G23K3,12,1,3,1.0,0,0,2,0,6,1.0,asocial
01JVTTCV3XRYR5EQMHJG8G23K3,12,2,3,1.0,0,0,1,0,6,1.0,asocial
01JVTTCV3XRYR5EQMHJG8G23K3,12,3,3,1.0,8,0,62,6,6,1.0,asocial
01JVTTCV3XRYR5EQMHJG8G23K3,12,4,3,1.0,0,0,1,0,6,1.0,asocial
01JVTTCV3XRYR5EQMHJG8G23K3,12,5,3,1.0,1,0,2,0,6,1.0,asocial
01JVTTCV3XRYR5EQMHJG8G23K3,12,6,3,1.0,2,0,25,1,6,1.0,asocial
01JVTTCV3XRYR5EQMHJG8G23K3,12,7,3,1.0,0,0,2,0,6,1.0,asocial
01JVTTCV3XRYR5EQMHJG8G23K3,12,8,3,1.0,0,0,4,0,6,1.0,asocial
01JVTTCV3XRYR5EQMHJG8G23K3,12,9,3,1.0,0,0,2,0,6,1.0,asocial
01JVTTCV3XRYR5EQMHJG8G23K3,13,0,3,1.0,0,0,2,0,3,1.0,asocial
01JVTTCV3XRYR5EQMHJG8G23K3,13,1,3,1.0,0,0,2,0,3,1.0,asocial
01JVTTCV3XRYR5EQMHJG8G23K3,13,2,3,1.0,0,0,1,0,3,1.0,asocial
01JVTTCV3XRYR5EQMHJG8G23K3,13,3,3,1.0,9,0,68,6,3,1.0,asocial
01JVTTCV3XRYR5EQMHJG8G23K3,13,4,3,1.0,0,0,1,0,3,1.0,asocial
01JVTTCV3XRYR5EQMHJG8G23K3,13,5,3,1.0,1,0,2,0,3,1.0,asocial
01JVTTCV3XRYR5EQMHJG8G23K3,13,6,3,1.0,2,0,29,1,3,1.0,asocial
01JVTTCV3XRYR5EQMHJG8G23K3,13,7,3,1.0,0,0,2,0,3,1.0,asocial
01JVTTCV3XRYR5EQMHJG8G23K3,13,8,3,1.0,0,0,4,0,3,1.0,asocial
