participant_id,round,arm,choice,reward,own_success,own_failure,group_success,group_failure,prev_choice,prev_reward,condition
01JVWAAGYJKN322FY871XFT4P5,1,0,7,0.0,0,0,0,0,-1,,asocial
01JVWAAGYJKN322FY871XFT4P5,1,1,7,0.0,0,0,0,0,-1,,asocial
01JVWAAGYJKN322FY871XFT4P5,1,2,7,0.0,0,0,0,0,-1,,asocial
01JVWAAGYJKN322FY871XFT4P5,1,3,7,0.0,0,0,0,0,-1,,asocial
01JVWAAGYJKN322FY871XFT4P5,1,4,7,0.0,0,0,0,0,-1,,asocial
01JVWAAGYJKN322FY871XFT4P5,1,5,7,0.0,0,0,0,0,-1,,asocial
01JVWAAGYJKN322FY871XFT4P5,1,6,7,0.0,0,0,0,0,-1,,asocial
01JVWAAGYJKN322FY871XFT4P5,1,7,7,0.0,0,0,0,0,-1,,asocial
01JVWAAGYJKN322FY871XFT4P5,1,8,7,0.0,0,0,0,0,-1,,asocial
01JVWAAGYJKN322FY871XFT4P5,1,9,7,0.0,0,0,0,0,-1,,asocial
01JVWAAGYJKN322FY871XFT4P5,2,0,3,1.0,0,0,0,1,7,0.0,asocial
01JVWAAGYJKN322FY871XFT4P5,2,1,3,1.0,0,0,1,0,7,0.0,asocial
01JVWAAGYJKN322FY871XFT4P5,2,2,3,1.0,0,0,0,1,7,0.0,asocial
01JVWAAGYJKN322FY871XFT4P5,2,3,3,1.0,0,0,1,0,7,0.0,asocial
01JVWAAGYJKN322FY871XFT4P5,2,4,3,1.0,0,0,1,0,7,0.0,asocial
01JVWAAGYJKN322FY871XFT4P5,2,5,3,1.0,0,0,0,0,7,0.0,asocial
01JVWAAGYJKN322FY871XFT4P5,2,6,3,1.0,0,0,0,1,7,0.0,asocial
01JVWAAGYJKN322FY871XFT4P5,2,7,3,1.0,0,1,0,1,7,0.0,asocial
01JVWAAGYJKN322FY871XFT4P5,2,8,3,1.0,0,0,1,0,7,0.0,asocial
01JVWAAGYJKN322FY871XFT4P5,2,9,3,1.0,0,0,1,0,7,0.0,asocial
01JVWAAGYJKN322FY871XFT4P5,3,0,4,1.0,0,0,0,1,3,1.0,asocial
01JVWAAGYJKN322FY871XFT4P5,3,1,4,1.0,0,0,2,0,3,1.0,asocial
01JVWAAGYJKN322FY871XFT4P5,3,2,4,1.0,0,0,0,1,3,1.0,asocial
01JVWAAGYJKN322FY871XFT4P5,3,3,4,1.0,1,0,3,0,3,1.0,asocial
01JVWAAGYJKN322FY871XFT4P5,3,4,4,1.0,0,0,2,0,3,1.0,asocial
01JVWAAGYJKN322FY871XFT4P5,3,5,4,1.0,0,0,1,0,3,1.0,asocial
01JVWAAGYJKN322FY871XFT4P5,3,6,4,1.0,0,0,0,1,3,1.0,asocial
01JVWAAGYJKN322FY871XFT4P5,3,7,4,1.0,0,1,0,1,3,1.0,asocial
01JVWAAGYJKN322FY871XFT4P5,3,8,4,1.0,0,0,3,0,3,1.0,asocial
01JVWAAGYJKN322FY871XFT4P5,3,9,4,1.0,0,0,4,0,3,1.0,asocial
01JVWAAGYJKN322FY871XFT4P5,4,0,9,1.0,0,0,0,1,4,1.0,asocial
01JVWAAGYJKN322FY871XFT4P5,4,1,9,1.0,0,0,2,0,4,1.0,asocial
01JVWAAGYJKN322FY871XFT4P5,4,2,9,1.0,0,0,0,1,4,1.0,asocial
01JVWAAGYJKN322FY871XFT4P5,4,3,9,1.0,1,0,4,0,4,1.0,asocial
01JVWAAGYJKN322FY871XFT4P5,4,4,9,1.0,1,0,3,0,4,1.0,asocial
01JVWAAGYJKN322FY871XFT4P5,4,5,9,1.0,0,0,1,0,4,1.0,asocial
01JVWAAGYJKN322FY871XFT4P5,4,6,9,1.0,0,0,0,1,4,1.0,asocial
01JVWAAGYJKN322FY871XFT4P5,4,7,9,1.0,0,1,0,1,4,1.0,asocial
01JVWAAGYJKN322FY871XFT4P5,4,8,9,1.0,0,0,3,0,4,1.0,asocial
01JVWAAGYJKN322FY871XFT4P5,4,9,9,1.0,0,0,12,0,4,1.0,asocial
01JVWAAGYJKN322FY871XFT4P5,5,0,9,1.0,0,0,0,1,9,1.0,asocial
01JVWAAGYJKN322FY871XFT4P5,5,1,9,1.0,0,0,2,0,9,1.0,asocial
01JVWAAGYJKN322FY871XFT4P5,5,2,9,1.0,0,0,0,1,9,1.0,asocial
01JVWAAGYJKN322FY871XFT4P5,5,3,9,1.0,1,0,4,0,9,1.0,asocial
01JVWAAGYJKN322FY871XFT4P5,5,4,9,1.0,1,0,3,0,9,1.0,asocial
01JVWAAGYJKN322FY871XFT4P5,5,5,9,1.0,0,0,1,0,9,1.0,asocial
01JVWAAGYJKN322FY871XFT4P5,5,6,9,1.0,0,0,0,1,9,1.0,asocial
01JVWAAGYJKN322FY871XFT4P5,5,7,9,1.0,0,1,0,1,9,1.0,asocial
01JVWAAGYJKN322FY871XFT4P5,5,8,9,1.0,0,0,3,0,9,1.0,asocial
01JVWAAGYJKN322FY871XFT4P5,5,9,9,1.0,1,0,22,0,9,1.0,asocial
01JVWAAGYJKN322FY871XFT4P5,6,0,3,1.0,0,0,0,1,9,1.0,asocial
01JVWAAGYJKN322FY871XFT4P5,6,1,3,1.0,0,0,2,0,9,1.0,asocial
01JVWAAGYJKN322FY871XFT4P5,6,2,3,1.0,0,0,0,1,9,1.0,asocial
01JVWAAGYJKN322FY871XFT4P5,6,3,3,1.0,1,0,5,0,9,1.0,asocial
01JVWAAGYJKN322FY871XFT4P5,6,4,3,1.0,1,0,3,0,9,1.0,asocial
01JVWAAGYJKN322FY871XFT4P5,6,5,3,1.0,0,0,1,0,9,1.0,asocial
01JVWAAGYJKN322FY871XFT4P5,6,6,3,1.0,0,0,0,1,9,1.0,asocial
01JVWAAGYJKN322FY871XFT4P5,6,7,3,1.0,0,1,0,1,9,1.0,asocial
01JVWAAGYJKN322FY871XFT4P5,6,8,3,1.0,0,0,3,0,9,1.0,asocial
01JVWAAGYJKN322FY871XFT4P5,6,9,3,1.0,2,0,30,1,9,1.0,asocial
01JVWAAGYJKN322FY871XFT4P5,7,0,3,0.0,0,0,0,1,3,1.0,asocial
01JVWAAGYJKN322FY871XFT4P5,7,1,3,0.0,0,0,2,0,3,1.0,asocial
01JVWAAGYJKN322FY871XFT4P5,7,2,3,0.0,0,0,0,1,3,1.0,asocial
01JVWAAGYJKN322FY871XFT4P5,7,3,3,0.0,2,0,7,0,3,1.0,asocial
01JVWAAGYJKN322FY871XFT4P5,7,4,3,0.0,1,0,3,0,3,1.0,asocial
01JVWAAGYJKN322FY871XFT4P5,7,5,3,0.0,0,0,1,0,3,1.0,asocial
01JVWAAGYJKN322FY871XFT4P5,7,6,3,0.0,0,0,0,1,3,1.0,asocial
01JVWAAGYJKN322FY871XFT4P5,7,7,3,0.0,0,1,0,1,3,1.0,asocial
01JVWAAGYJKN322FY871XFT4P5,7,8,3,0.0,0,0,3,0,3,1.0,asocial
01JVWAAGYJKN322FY871XFT4P5,7,9,3,0.0,2,0,38,1,3,1.0,asocial
01JVWAAGYJKN322FY871XFT4P5,8,0,9,1.0,0,0,0,1,3,0.0,asocial
01JVWAAGYJKN322FY871XFT4P5,8,1,9,1.0,0,0,2,0,3,0.0,asocial
01JVWAAGYJKN322FY871XFT4P5,8,2,9,1.0,0,0,0,1,3,0.0,asocial
01JVWAAGYJKN322FY871XFT4P5,8,3,9,1.0,2,1,8,1,3,0.0,asocial
01JVWAAGYJKN322FY871XFT4P5,8,4,9,1.0,1,0,3,0,3,0.0,asocial
01JVWAAGYJKN322FY871XFT4P5,8,5,9,1.0,0,0,1,0,3,0.0,asocial
01JVWAAGYJKN322FY871XFT4P5,8,6,9,1.0,0,0,0,1,3,0.0,asocial
01JVWAAGYJKN322FY871XFT4P5,8,7,9,1.0,0,1,0,1,3,0.0,asocial
01JVWAAGYJKN322FY871XFT4P5,8,8,9,1.0,0,0,3,0,3,0.0,asocial
01JVWAAGYJKN322FY871XFT4P5,8,9,9,1.0,2,0,45,2,3,0.0,asocial
01JVWAAGYJKN322FY871XFT4P5,9,0,9,1.0,0,0,0,1,9,1.0,asocial
01JVWAAGYJKN322FY871XFT4P5,9,1,9,1.0,0,0,2,0,9,1.0,asocial
01JVWAAGYJKN322FY871XFT4P5,9,2,9,1.0,0,0,0,1,9,1.0,asocial
01JVWAAGYJKN322FY871XFT4P5,9,3,9,1.0,2,1,9,1,9,1.0,asocial
01JVWAAGYJKN322FY871XFT4P5,9,4,9,1.0,1,0,3,0,9,1.0,asocial
01JVWAAGYJKN322FY871XFT4P5,9,5,9,1.0,0,0,1,0,9,1.0,asocial
01JVWAAGYJKN322FY871XFT4P5,9,6,9,1.0,0,0,0,1,9,1.0,asocial
01JVWAAGYJKN322FY871XFT4P5,9,7,9,1.0,0,1,0,1,9,1.0,asocial
01JVWAAGYJKN322FY871XFT4P5,9,8,9,1.0,0,0,3,0,9,1.0,asocial
01JVWAAGYJKN322FY871XFT4P5,9,9,9,1.0,3,0,54,2,9,1.0,asocial
01JVWAAGYJKN322FY871XFT4P5,10,0,9,1.0,0,0,0,1,9,1.0,asocial
01JVWAAGYJKN322FY871XFT4P5,10,1,9,1.0,0,0,2,0,9,1.0,asocial
01JVWAAGYJKN322FY871XFT4P5,10,2,9,1.0,0,0,0,1,9,1.0,asocial
01JVWAAGYJKN322FY871XFT4P5,10,3,9,1.0,2,1,10,1,9,1.0,asocial
01JVWAAGYJKN322FY871XFT4P5,10,4,9,1.0,1,0,3,0,9,1.0,asocial
01JVWAAGYJKN322FY871XFT4P5,10,5,9,1.0,0,0,1,0,9,1.0,asocial
01JVWAAGYJKN322FY871XFT4P5,10,6,9,1.0,0,0,0,1,9,1.0,asocial
01JVWAAGYJKN322FY871XFT4P5,10,7,9,1.0,0,1,0,1,9,1.0,asocial
01JVWAAGYJKN322FY871XFT4P5,10,8,9,1.0,0,0,4,0,9,1.0,asocial
01JVWAAGYJKN322FY871XFT4P5,10,9,9,1.0,4,0,62,2,9,1.0,asocial
01JVWAAGYJKN322FY871XFT4P5,11,0,9,1.0,0,0,0,1,9,1.0,asocial
01JVWAAGYJKN322FY871XFT4P5,11,1,9,1.0,0,0,2,0,9,1.0,asocial
01JVWAAGYJKN322FY871XFT4P5,11,2,9,1.0,0,0,0,1,9,1.0,asocial
01JVWAAGYJKN322FY871XFT4P5,11,3,9,1.0,2,1,10,2,9,1.0,asocial
01JVWAAGYJKN322FY871XFT4P5,11,4,9,1.0,1,0,4,0,9,1.0,asocial
01JVWAAGYJKN322FY871XFT4P5,11,5,9,1.0,0,0,1,0,9,1.0,asocial
01JVWAAGYJKN322FY871XFT4P5,11,6,9,1.0,0,0,0,1,9,1.0,asocial
01JVWAAGYJKN322FY871XFT4P5,11,7,9,1.0,0,1,0,1,9,1.0,asocial
01JVWAAGYJKN322FY871XFT4P5,11,8,9,1.0,0,0,4,0,9,1.0,asocial
01JVWAAGYJKN322FY871XFT4P5,11,9,9,1.0,5,0,70,2,9,1.0,asocial
01JVWAAGYJKN322FY871XFT4P5,12,0,9,1.0,0,0,0,1,9,1.0,asocial
01JVWAAGYJKN322FY871XFT4P5,12,1,9,1.0,0,0,2,0,9,1.0,asocial
01JVWAAGYJKN322FY871XFT4P5,12,2,9,1.0,0,0,0,1,9,1.0,asocial
01JVWAAGYJKN322FY871XFT4P5,12,3,9,1.0,2,1,10,2,9,1.0,asocial
01JVWAAGYJKN322FY871XFT4P5,12,4,9,1.0,1,0,5,0,9,1.0,asocial
01JVWAAGYJKN322FY871XFT4P5,12,5,9,1.0,0,0,1,0,9,1.0,asocial
01JVWAAGYJKN322FY871XFT4P5,12,6,9,1.0,0,0,0,1,9,1.0,asocial
01JVWAAGYJKN322FY871XFT4P5,12,7,9,1.0,0,1,0,1,9,1.0,asocial
01JVWAAGYJKN322FY871XFT4P5,12,8,9,1.0,0,0,4,0,9,1.0,asocial
01JVWAAGYJKN322FY871XFT4P5,12,9,9,1.0,6,0,79,2,9,1.0,asocial
01JVWAAGYJKN322FY871XFT4P5,13,0,9,1.0,0,0,0,1,9,1.0,asocial
01JVWAAGYJKN322FY871XFT4P5,13,1,9,1.0,0,0,2,0,9,1.0,asocial
01JVWAAGYJKN322FY871XFT4P5,13,2,9,1.0,0,0,0,1,9,1.0,asocial
01JVWAAGYJKN322FY871XFT4P5,13,3,9,1.0,2,1,10,3,9,1.0,asocial
01JVWAAGYJKN322FY871XFT4P5,13,4,9,1.0,1,0,6,0,9,1.0,asocial
01JVWAAGYJKN322FY871XFT4P5,13,5,9,1.0,0,0,1,0,9,1.0,asocial
01JVWAAGYJKN322FY871XFT4P5,13,6,9,1.0,0,0,0,1,9,1.0,asocial
01JVWAAGYJKN322FY871XFT4P5,13,7,9,1.0,0,1,0,1,9,1.0,asocial
01JVWAAGYJKN322FY871XFT4P5,13,8,9,1.0,0,0,4,0,9,1.0,asocial
01JVWAAGYJKN322FY871XFT4P5,13,9,9,1.0,7,0,87,2,9,1.0,asocial
01JVWAAGYJKN322FY871XFT4P5,14,0,4,1.0,0,0,0,1,9,1.0,asocial
01JVWAAGYJKN322FY871XFT4P5,14,1,4,1.0,0,0,2,0,9,1.0,asocial
01JVWAAGYJKN322FY871XFT4P5,14,2,4,1.0,0,0,0,1,9,1.0,asocial
01JVWAAGYJKN322FY871XFT4P5,14,3,4,1.0,2,1,10,3,9,1.0,asocial
01JVWAAGYJKN322FY871XFT4P5,14,4,4,1.0,1,0,7,0,9,1.0,asocial
01JVWAAGYJKN322FY871XFT4P5,14,5,4,1.0,0,0,1,0,9,1.0,asocial
01JVWAAGYJKN322FY871XFT4P5,14,6,4,1.0,0,0,0,1,9,1.0,asocial
01JVWAAGYJKN322FY871XFT4P5,14,7,4,1.0,0,1,0,1,9,1.0,asocial
01JVWAAGYJKN322FY871XFT4P5,14,8,4,1.0,0,0,4,0,9,1.0,asocial
01JVWAAGYJKN322FY871XFT4P5,14,9,4,1.0,8,0,94,4,9,1.0,asocial
01JVWAAGYJKN322FY871XFT4P5,15,0,9,1.0,0,0,0,1,4,1.0,asocial
01JVWAAGYJKN322FY871XFT4P5,15,1,9,1.0,0,0,2,0,4,1.0,asocial
01JVWAAGYJKN322FY871XFT4P5,15,2,9,1.0,0,0,0,1,4,1.0,asocial
01JVWAAGYJKN322FY871XFT4P5,15,3,9,1.0,2,1,11,3,4,1.0,asocial
01JVWAAGYJKN322FY871XFT4P5,15,4,9,1.0,2,0,8,1,4,1.0,asocial
01JVWAAGYJKN322FY871XFT4P5,15,5,9,1.0,0,0,1,0,4,1.0,asocial
01JVWAAGYJKN322FY871XFT4P5,15,6,9,1.0,0,0,0,1,4,1.0,asocial
01JVWAAGYJKN322FY871XFT4P5,15,7,9,1.0,0,1,0,1,4,1.0,asocial
01JVWAAGYJKN322FY871XFT4P5,15,8,9,1.0,0,0,4,0,4,1.0,asocial
01JVWAAGYJKN322FY871XFT4P5,15,9,9,1.0,8,0,101,4,4,1.0,asocial
01JVWAAGYJKN322FY871XFT4P5,16,0,8,1.0,0,0,0,1,9,1.0,asocial
01JVWAAGYJKN322FY871XFT4P5,16,1,8,1.0,0,0,2,0,9,1.0,asocial
01JVWAAGYJKN322FY871XFT4P5,16,2,8,1.0,0,0,0,1,9,1.0,asocial
01JVWAAGYJKN322FY871XFT4P5,16,3,8,1.0,2,1,12,3,9,1.0,asocial
01JVWAAGYJKN322FY871XFT4P5,16,4,8,1.0,2,0,8,1,9,1.0,asocial
01JVWAAGYJKN322FY871XFT4P5,16,5,8,1.0,0,0,1,0,9,1.0,asocial
01JVWAAGYJKN322FY871XFT4P5,16,6,8,1.0,0,0,0,1,9,1.0,asocial
01JVWAAGYJKN322FY871XFT4P5,16,7,8,1.0,0,1,0,1,9,1.0,asocial
01JVWAAGYJKN322FY871XFT4P5,16,8,8,1.0,0,0,5,0,9,1.0,asocial
01JVWAAGYJKN322FY871XFT4P5,16,9,8,1.0,9,0,108,5,9,1.0,asocial
01JVWAAGYJKN322FY871XFT4P5,17,0,8,1.0,0,0,0,1,8,1.0,asocial
01JVWAAGYJKN322FY871XFT4P5,17,1,8,1.0,0,0,2,0,8,1.0,asocial
01JVWAAGYJKN322FY871XFT4P5,17,2,8,1.0,0,0,0,1,8,1.0,asocial
01JVWAAGYJKN322FY871XFT4P5,17,3,8,1.0,2,1,13,3,8,1.0,asocial
01JVWAAGYJKN322FY871XFT4P5,17,4,8,1.0,2,0,8,1,8,1.0,asocial
01JVWAAGYJKN322FY871XFT4P5,17,5,8,1.0,0,0,1,0,8,1.0,asocial
01JVWAAGYJKN322FY871XFT4P5,17,6,8,1.0,0,0,0,1,8,1.0,asocial
01JVWAAGYJKN322FY871XFT4P5,17,7,8,1.0,0,1,0,1,8,1.0,asocial
01JVWAAGYJKN322FY871XFT4P5,17,8,8,1.0,1,0,7,0,8,1.0,asocial
01JVWAAGYJKN322FY871XFT4P5,17,9,8,1.0,9,0,114,6,8,1.0,asocial
01JVWAAGYJKN322FY871XFT4P5,18,0,9,1.0,0,0,0,1,8,1.0,asocial
01JVWAAGYJKN322FY871XFT4P5,18,1,9,1.0,0,0,2,0,8,1.0,asocial
01JVWAAGYJKN322FY871XFT4P5,18,2,9,1.0,0,0,0,1,8,1.0,asocial
01JVWAAGYJKN322FY871XFT4P5,18,3,9,1.0,2,1,13,3,8,1.0,asocial
01JVWAAGYJKN322FY871XFT4P5,18,4,9,1.0,2,0,8,1,8,1.0,asocial
01JVWAAGYJKN322FY871XFT4P5,18,5,9,1.0,0,0,1,0,8,1.0,asocial
01JVWAAGYJKN322FY871XFT4P5,18,6,9,1.0,0,0,0,1,8,1.0,asocial
01JVWAAGYJKN322FY871XFT4P5,18,7,9,1.0,0,1,0,1,8,1.0,asocial
01JVWAAGYJKN322FY871XFT4P5,18,8,9,1.0,2,0,8,1,8,1.0,asocial
01JVWAAGYJKN322FY871XFT4P5,18,9,9,1.0,9,0,121,7,8,1.0,asocial
01JVWAAGYJKN322FY871XFT4P5,19,0,9,1.0,0,0,0,1,9,1.0,asocial
01JVWAAGYJKN322FY871XFT4P5,19,1,9,1.0,0,0,3,0,9,1.0,asocial
01JVWAAGYJKN322FY871XFT4P5,19,2,9,1.0,0,0,0,1,9,1.0,asocial
01JVWAAGYJKN322FY871XFT4P5,19,3,9,1.0,2,1,14,3,9,1.0,asocial
01JVWAAGYJKN322FY871XFT4P5,19,4,9,1.0,2,0,8,1,9,1.0,asocial
01JVWAAGYJKN322FY871XFT4P5,19,5,9,1.0,0,0,1,0,9,1.0,asocial
01JVWAAGYJKN322FY871XFT4P5,19,6,9,1.0,0,0,0,1,9,1.0,asocial
01JVWAAGYJKN322FY871XFT4P5,19,7,9,1.0,0,1,0,1,9,1.0,asocial
01JVWAAGYJKN322FY871XFT4P5,19,8,9,1.0,2,0,8,1,9,1.0,asocial
01JVWAAGYJKN322FY871XFT4P5,19,9,9,1.0,10,0,126,10,9,1.0,asocial
01JVWAAGYJKN322FY871XFT4P5,20,0,5,1.0,0,0,0,1,9,1.0,asocial
01JVWAAGYJKN322FY871XFT4P5,20,1,5,1.0,0,0,3,1,9,1.0,asocial
01JVWAAGYJKN322FY871XFT4P5,20,2,5,1.0,0,0,0,1,9,1.0,asocial
01JVWAAGYJKN322FY871XFT4P5,20,3,5,1.0,2,1,14,3,9,1.0,asocial
01JVWAAGYJKN322FY871XFT4P5,20,4,5,1.0,2,0,8,1,9,1.0,asocial
01JVWAAGYJKN322FY871XFT4P5,20,5,5,1.0,0,0,1,0,9,1.0,asocial
01JVWAAGYJKN322FY871XFT4P5,20,6,5,1.0,0,0,0,1,9,1.0,asocial
01JVWAAGYJKN322FY871XFT4P5,20,7,5,1.0,0,1,0,1,9,1.0,asocial
01JVWAAGYJKN322FY871XFT4P5,20,8,5,1.0,2,0,8,1,9,1.0,asocial
01JVWAAGYJKN322FY871XFT4P5,20,9,5,1.0,11,0,134,11,9,1.0,asocial
01JVWAAGYJKN322FY871XFT4P5,21,0,5,1.0,0,0,0,1,5,1.0,asocial
01JVWAAGYJKN322FY871XFT4P5,21,1,5,1.0,0,0,3,1,5,1.0,asocial
01JVWAAGYJKN322FY871XFT4P5,21,2,5,1.0,0,0,0,1,5,1.0,asocial
01JVWAAGYJKN322FY871XFT4P5,21,3,5,1.0,2,1,15,3,5,1.0,asocial
01JVWAAGYJKN322FY871XFT4P5,21,4,5,1.0,2,0,8,1,5,1.0,asocial
01JVWAAGYJKN322FY871XFT4P5,21,5,5,1.0,1,0,2,0,5,1.0,asocial
01JVWAAGYJKN322FY871XFT4P5,21,6,5,1.0,0,0,0,1,5,1.0,asocial
01JVWAAGYJKN322FY871XFT4P5,21,7,5,1.0,0,1,0,1,5,1.0,asocial
01JVWAAGYJKN322FY871XFT4P5,21,8,5,1.0,2,0,9,1,5,1.0,asocial
01JVWAAGYJKN322FY871XFT4P5,21,9,5,1.0,11,0,140,12,5,1.0,asocial
01JVWAAGYJKN322FY871XFT4P5,22,0,5,1.0,0,0,0,1,5,1.0,asocial
01JVWAAGYJKN322FY871XFT4P5,22,1,5,1.0,0,0,3,1,5,1.0,asocial
01JVWAAGYJKN322FY871XFT4P5,22,2,5,1.0,0,0,0,1,5,1.0,asocial
01JVWAAGYJKN322FY871XFT4P5,22,3,5,1.0,2,1,16,3,5,1.0,asocial
01JVWAAGYJKN322FY871XFT4P5,22,4,5,1.0,2,0,8,1,5,1.0,asocial
01JVWAAGYJKN322FY871XFT4P5,22,5,5,1.0,2,0,4,0,5,1.0,asocial
01JVWAAGYJKN322FY871XFT4P5,22,6,5,1.0,0,0,0,1,5,1.0,asocial
01JVWAAGYJKN322FY871XFT4P5,22,7,5,1.0,0,1,0,1,5,1.0,asocial
01JVWAAGYJKN322FY871XFT4P5,22,8,5,1.0,2,0,10,1,5,1.0,asocial
01JVWAAGYJKN322FY871XFT4P5,22,9,5,1.0,11,0,145,13,5,1.0,asocial
01JVWAAGYJKN322FY871XFT4P5,23,0,5,1.0,0,0,0,1,5,1.0,asocial
01JVWAAGYJKN322FY871XFT4P5,23,1,5,1.0,0,0,3,1,5,1.0,asocial
01JVWAAGYJKN322FY871XFT4P5,23,2,5,1.0,0,0,0,1,5,1.0,asocial
01JVWAAGYJKN322FY871XFT4P5,23,3,5,1.0,2,1,16,3,5,1.0,asocial
01JVWAAGYJKN322FY871XFT4P5,23,4,5,1.0,2,0,8,1,5,1.0,asocial
01JVWAAGYJKN322FY871XFT4P5,23,5,5,1.0,3,0,6,0,5,1.0,asocial
01JVWAAGYJKN322FY871XFT4P5,23,6,5,1.0,0,0,0,1,5,1.0,asocial
01JVWAAGYJKN322FY871XFT4P5,23,7,5,1.0,0,1,0,1,5,1.0,asocial
01JVWAAGYJKN322FY871XFT4P5,23,8,5,1.0,2,0,11,1,5,1.0,asocial
01JVWAAGYJKN322FY871XFT4P5,23,9,5,1.0,11,0,151,13,5,1.0,asocial
01JVWAAGYJKN322FY871XFT4P5,24,0,5,1.0,0,0,0,1,5,1.0,asocial
01JVWAAGYJKN322FY871XFT4P5,24,1,5,1.0,0,0,3,1,5,1.0,asocial
01JVWAAGYJKN322FY871XFT4P5,24,2,5,1.0,0,0,0,1,5,1.0,asocial
01JVWAAGYJKN322FY871XFT4P5,24,3,5,1.0,2,1,17,4,5,1.0,asocial
01JVWAAGYJKN322FY871XFT4P5,24,4,5,1.0,2,0,8,1,5,1.0,asocial
01JVWAAGYJKN322FY871XFT4P5,24,5,5,1.0,4,0,8,0,5,1.0,asocial
01JVWAAGYJKN322FY871XFT4P5,24,6,5,1.0,0,0,0,1,5,1.0,asocial
01JVWAAGYJKN322FY871XFT4P5,24,7,5,1.0,0,1,0,1,5,1.0,asocial
01JVWAAGYJKN322FY871XFT4P5,24,8,5,1.0,2,0,12,1,5,1.0,asocial
01JVWAAGYJKN322FY871XFT4P5,24,9,5,1.0,11,0,155,13,5,1.0,asocial
01JVWAAGYJKN322FY871XFT4P5,25,0,5,1.0,0,0,0,1,5,1.0,asocial
01JVWAAGYJKN322FY871XFT4P5,25,1,5,1.0,0,0,3,1,5,1.0,asocial
01JVWAAGYJKN322FY871XFT4P5,25,2,5,1.0,0,0,0,1,5,1.0,asocial
01JVWAAGYJKN322FY871XFT4P5,25,3,5,1.0,2,1,18,4,5,1.0,asocial
01JVWAAGYJKN322FY871XFT4P5,25,4,5,1.0,2,0,8,1,5,1.0,asocial
01JVWAAGYJKN322FY871XFT4P5,25,5,5,1.0,5,0,10,0,5,1.0,asocial
01JVWAAGYJKN322FY871XFT4P5,25,6,5,1.0,0,0,0,1,5,1.0,asocial
01JVWAAGYJKN322FY871XFT4P5,25,7,5,1.0,0,1,0,1,5,1.0,asocial
01JVWAAGYJKN322FY871XFT4P5,25,8,5,1.0,2,0,13,1,5,1.0,asocial
01JVWAAGYJKN322FY871XFT4P5,25,9,5,1.0,11,0,161,13,5,1.0,asocial
01JVWAAGYJKN322FY871XFT4P5,26,0,5,1.0,0,0,0,1,5,1.0,asocial
01JVWAAGYJKN322FY871XFT4P5,26,1,5,1.0,0,0,3,1,5,1.0,asocial
01JVWAAGYJKN322FY871XFT4P5,26,2,5,1.0,0,0,0,1,5,1.0,asocial
01JVWAAGYJKN322FY871XFT4P5,26,3,5,1.0,2,1,19,4,5,1.0,asocial
01JVWAAGYJKN322FY871XFT4P5,26,4,5,1.0,2,0,8,1,5,1.0,asocial
01JVWAAGYJKN322FY871XFT4P5,26,5,5,1.0,6,0,12,0,5,1.0,asocial
01JVWAAGYJKN322FY871XFT4P5,26,6,5,1.0,0,0,0,1,5,1.0,asocial
01JVWAAGYJKN322FY871XFT4P5,26,7,5,1.0,0,1,0,1,5,1.0,asocial
01JVWAAGYJKN322FY871XFT4P5,26,8,5,1.0,2,0,15,1,5,1.0,asocial
01JVWAAGYJKN322FY871XFT4P5,26,9,5,1.0,11,0,164,15,5,1.0,asocial
01JVWAAGYJKN322FY871XFT4P5,27,0,5,1.0,0,0,0,1,5,1.0,asocial
01JVWAAGYJKN322FY871XFT4P5,27,1,5,1.0,0,0,3,1,5,1.0,asocial
01JVWAAGYJKN322FY871XFT4P5,27,2,5,1.0,0,0,0,1,5,1.0,asocial
01JVWAAGYJKN322FY871XFT4P5,27,3,5,1.0,2,1,20,4,5,1.0,asocial
01JVWAAGYJKN322FY871XFT4P5,27,4,5,1.0,2,0,8,1,5,1.0,asocial
01JVWAAGYJKN322FY871XFT4P5,27,5,5,1.0,7,0,15,0,5,1.0,asocial
01JVWAAGYJKN322FY871XFT4P5,27,6,5,1.0,0,0,0,1,5,1.0,asocial
01JVWAAGYJKN322FY871XFT4P5,27,7,5,1.0,0,1,0,1,5,1.0,asocial
01JVWAAGYJKN322FY871XFT4P5,27,8,5,1.0,2,0,17,1,5,1.0,asocial
01JVWAAGYJKN322FY871XFT4P5,27,9,5,1.0,11,0,168,15,5,1.0,asocial
01JVWAAGYJKN322FY871XFT4P5,28,0,5,1.0,0,0,0,1,5,1.0,asocial
01JVWAAGYJKN322FY871XFT4P5,28,1,5,1.0,0,0,3,1,5,1.0,asocial
01JVWAAGYJKN322FY871XFT4P5,28,2,5,1.0,0,0,0,1,5,1.0,asocial
01JVWAAGYJKN322FY871XFT4P5,28,3,5,1.0,2,1,22,4,5,1.0,asocial
01JVWAAGYJKN322FY871XFT4P5,28,4,5,1.0,2,0,8,1,5,1.0,asocial
01JVWAAGYJKN322FY871XFT4P5,28,5,5,1.0,8,0,17,1,5,1.0,asocial
01JVWAAGYJKN322FY871XFT4P5,28,6,5,1.0,0,0,0,1,5,1.0,asocial
01JVWAAGYJKN322FY871XFT4P5,28,7,5,1.0,0,1,0,1,5,1.0,asocial
01JVWAAGYJKN322FY871XFT4P5,28,8,5,1.0,2,0,19,1,5,1.0,asocial
01JVWAAGYJKN322FY871XFT4P5,28,9,5,1.0,11,0,171,15,5,1.0,asocial
01JVWAAGYJKN322FY871XFT4P5,29,0,5,1.0,0,0,0,1,5,1.0,asocial
01JVWAAGYJKN322FY871XFT4P5,29,1,5,1.0,0,0,3,1,5,1.0,asocial
01JVWAAGYJKN322FY871XFT4P5,29,2,5,1.0,0,0,0,1,5,1.0,asocial
01JVWAAGYJKN322FY871XFT4P5,29,3,5,1.0,2,1,23,4,5,1.0,asocial
01JVWAAGYJKN322FY871XFT4P5,29,4,5,1.0,2,0,8,1,5,1.0,asocial
01JVWAAGYJKN322FY871XFT4P5,29,5,5,1.0,9,0,18,1,5,1.0,asocial
01JVWAAGYJKN322FY871XFT4P5,29,6,5,1.0,0,0,0,1,5,1.0,asocial
01JVWAAGYJKN322FY871XFT4P5,29,7,5,1.0,0,1,0,1,5,1.0,asocial
01JVWAAGYJKN322FY871XFT4P5,29,8,5,1.0,2,0,21,1,5,1.0,asocial
01JVWAAGYJKN322FY871XFT4P5,29,9,5,1.0,11,0,176,16,5,1.0,asocial
01JVWAAGYJKN322FY871XFT4P5,30,0,5,1.0,0,0,0,1,5,1.0,asocial
01JVWAAGYJKN322FY871XFT4P5,30,1,5,1.0,0,0,3,1,5,1.0,asocial
01JVWAAGYJKN322FY871XFT4P5,30,2,5,1.0,0,0,0,1,5,1.0,asocial
01JVWAAGYJKN322FY871XFT4P5,30,3,5,1.0,2,1,24,4,5,1.0,asocial
01JVWAAGYJKN322FY871XFT4P5,30,4,5,1.0,2,0,8,1,5,1.0,asocial
01JVWAAGYJKN322FY871XFT4P5,30,5,5,1.0,10,0,19,1,5,1.0,asocial
01JVWAAGYJKN322FY871XFT4P5,30,6,5,1.0,0,0,0,1,5,1.0,asocial
01JVWAAGYJKN322FY871XFT4P5,30,7,5,1.0,0,1,0,1,5,1.0,asocial
01JVWAAGYJKN322FY871XFT4P5,30,8,5,1.0,2,0,25,1,5,1.0,asocial
01JVWAAGYJKN322FY871XFT4P5,30,9,5,1.0,11,0,179,17,5,1.0,asocial
01JVWAAGYJKN322FY871XFT4P5,31,0,5,0.0,0,0,0,1,5,1.0,asocial
01JVWAAGYJKN322FY871XFT4P5,31,1,5,0.0,0,0,3,1,5,1.0,asocial
01JVWAAGYJKN322FY871XFT4P5,31,2,5,0.0,0,0,0,1,5,1.0,asocial
01JVWAAGYJKN322FY871XFT4P5,31,3,5,0.0,2,1,25,4,5,1.0,asocial
01JVWAAGYJKN322FY871XFT4P5,31,4,5,0.0,2,0,8,1,5,1.0,asocial
01JVWAAGYJKN322FY871XFT4P5,31,5,5,0.0,11,0,20,1,5,1.0,asocial
01JVWAAGYJKN322FY871XFT4P5,31,6,5,0.0,0,0,0,1,5,1.0,asocial
01JVWAAGYJKN322FY871XFT4P5,31,7,5,0.0,0,1,0,1,5,1.0,asocial
01JVWAAGYJKN322FY871XFT4P5,31,8,5,0.0,2,0,29,2,5,1.0,asocial
01JVWAAGYJKN322FY871XFT4P5,31,9,5,0.0,11,0,181,18,5,1.0,asocial
01JVWAAGYJKN322FY871XFT4P5,32,0,9,1.0,0,0,0,1,5,0.0,asocial
01JVWAAGYJKN322FY871XFT4P5,32,1,9,1.0,0,0,3,1,5,0.0,asocial
01JVWAAGYJKN322FY871XFT4P5,32,2,9,1.0,0,0,0,1,5,0.0,asocial
01JVWAAGYJKN322FY871XFT4P5,32,3,9,1.0,2,1,25,5,5,0.0,asocial
01JVWAAGYJKN322FY871XFT4P5,32,4,9,1.0,2,0,8,1,5,0.0,asocial
01JVWAAGYJKN322FY871XFT4P5,32,5,9,1.0,11,1,21,3,5,0.0,asocial
01JVWAAGYJKN322FY871XFT4P5,32,6,9,1.0,0,0,0,1,5,0.0,asocial
01JVWAAGYJKN322FY871XFT4P5,32,7,9,1.0,0,1,0,1,5,0.0,asocial
01JVWAAGYJKN322FY871XFT4P5,32,8,9,1.0,2,0,32,2,5,0.0,asocial
01JVWAAGYJKN322FY871XFT4P5,32,9,9,1.0,11,0,183,19,5,0.0,asocial
01JVWAAGYJKN322FY871XFT4P5,33,0,4,0.0,0,0,0,1,9,1.0,asocial
01JVWAAGYJKN322FY871XFT4P5,33,1,4,0.0,0,0,3,1,9,1.0,asocial
01JVWAAGYJKN322FY871XFT4P5,33,2,4,0.0,0,0,0,1,9,1.0,asocial
01JVWAAGYJKN322FY871XFT4P5,33,3,4,0.0,2,1,26,5,9,1.0,asocial
01JVWAAGYJKN322FY871XFT4P5,33,4,4,0.0,2,0,8,1,9,1.0,asocial
01JVWAAGYJKN322FY871XFT4P5,33,5,4,0.0,11,1,21,3,9,1.0,asocial
01JVWAAGYJKN322FY871XFT4P5,33,6,4,0.0,0,0,0,1,9,1.0,asocial
01JVWAAGYJKN322FY871XFT4P5,33,7,4,0.0,0,1,0,1,9,1.0,asocial
01JVWAAGYJKN322FY871XFT4P5,33,8,4,0.0,2,0,36,2,9,1.0,asocial
01JVWAAGYJKN322FY871XFT4P5,33,9,4,0.0,12,0,188,19,9,1.0,asocial
01JVWAAGYJKN322FY871XFT4P5,34,0,9,1.0,0,0,0,1,4,0.0,asocial
01JVWAAGYJKN322FY871XFT4P5,34,1,9,1.0,0,0,3,1,4,0.0,asocial
01JVWAAGYJKN322FY871XFT4P5,34,2,9,1.0,0,0,0,1,4,0.0,asocial
01JVWAAGYJKN322FY871XFT4P5,34,3,9,1.0,2,1,27,5,4,0.0,asocial
01JVWAAGYJKN322FY871XFT4P5,34,4,9,1.0,2,1,8,2,4,0.0,asocial
01JVWAAGYJKN322FY871XFT4P5,34,5,9,1.0,11,1,21,3,4,0.0,asocial
01JVWAAGYJKN322FY871XFT4P5,34,6,9,1.0,0,0,0,1,4,0.0,asocial
01JVWAAGYJKN322FY871XFT4P5,34,7,9,1.0,0,1,0,1,4,0.0,asocial
01JVWAAGYJKN322FY871XFT4P5,34,8,9,1.0,2,0,41,2,4,0.0,asocial
01JVWAAGYJKN322FY871XFT4P5,34,9,9,1.0,12,0,191,19,4,0.0,asocial
01JVWAAGYJKN322FY871XFT4P5,35,0,9,1.0,0,0,0,1,9,1.0,asocial
01JVWAAGYJKN322FY871XFT4P5,35,1,9,1.0,0,0,3,1,9,1.0,asocial
01JVWAAGYJKN322FY871XFT4P5,35,2,9,1.0,0,0,0,1,9,1.0,asocial
01JVWAAGYJKN322FY871XFT4P5,35,3,9,1.0,2,1,28,5,9,1.0,asocial
01JVWAAGYJKN322FY871XFT4P5,35,4,9,1.0,2,1,8,2,9,1.0,asocial
01JVWAAGYJKN322FY871XFT4P5,35,5,9,1.0,11,1,21,3,9,1.0,asocial
01JVWAAGYJKN322FY871XFT4P5,35,6,9,1.0,0,0,0,1,9,1.0,asocial
01JVWAAGYJKN322FY871XFT4P5,35,7,9,1.0,0,1,0,1,9,1.0,asocial
01JVWAAGYJKN322FY871XFT4P5,35,8,9,1.0,2,0,45,2,9,1.0,asocial
01JVWAAGYJKN322FY871XFT4P5,35,9,9,1.0,13,0,196,19,9,1.0,asocial
01JVWAAGYJKN322FY871XFT4P5,36,0,9,1.0,0,0,0,1,9,1.0,asocial
01JVWAAGYJKN322FY871XFT4P5,36,1,9,1.0,0,0,3,1,9,1.0,asocial
01JVWAAGYJKN322FY871XFT4P5,36,2,9,1.0,0,0,0,1,9,1.0,asocial
01JVWAAGYJKN322FY871XFT4P5,36,3,9,1.0,2,1,29,5,9,1.0,asocial
01JVWAAGYJKN322FY871XFT4P5,36,4,9,1.0,2,1,8,2,9,1.0,asocial
01JVWAAGYJKN322FY871XFT4P5,36,5,9,1.0,11,1,21,3,9,1.0,asocial
01JVWAAGYJKN322FY871XFT4P5,36,6,9,1.0,0,0,0,1,9,1.0,asocial
01JVWAAGYJKN322FY871XFT4P5,36,7,9,1.0,0,1,0,1,9,1.0,asocial
01JVWAAGYJKN322FY871XFT4P5,36,8,9,1.0,2,0,49,2,9,1.0,asocial
01JVWAAGYJKN322FY871XFT4P5,36,9,9,1.0,14,0,199,21,9,1.0,asocial
01JVWAAGYJKN322FY871XFT4P5,37,0,9,1.0,0,0,0,1,9,1.0,asocial
01JVWAAGYJKN322FY871XFT4P5,37,1,9,1.0,0,0,3,1,9,1.0,asocial
01JVWAAGYJKN322FY871XFT4P5,37,2,9,1.0,0,0,0,1,9,1.0,asocial
01JVWAAGYJKN322FY871XFT4P5,37,3,9,1.0,2,1,30,5,9,1.0,asocial
01JVWAAGYJKN322FY871XFT4P5,37,4,9,1.0,2,1,8,2,9,1.0,asocial
01JVWAAGYJKN322FY871XFT4P5,37,5,9,1.0,11,1,21,3,9,1.0,asocial
01JVWAAGYJKN322FY871XFT4P5,37,6,9,1.0,0,0,0,1,9,1.0,asocial
01JVWAAGYJKN322FY871XFT4P5,37,7,9,1.0,0,1,0,1,9,1.0,asocial
01JVWAAGYJKN322FY871XFT4P5,37,8,9,1.0,2,0,52,3,9,1.0,asocial
01JVWAAGYJKN322FY871XFT4P5,37,9,9,1.0,15,0,203,22,9,1.0,asocial
01JVWAAGYJKN322FY871XFT4P5,38,0,8,1.0,0,0,0,1,9,1.0,asocial
01JVWAAGYJKN322FY871XFT4P5,38,1,8,1.0,0,0,3,1,9,1.0,asocial
01JVWAAGYJKN322FY871XFT4P5,38,2,8,1.0,0,0,0,1,9,1.0,asocial
01JVWAAGYJKN322FY871XFT4P5,38,3,8,1.0,2,1,31,5,9,1.0,asocial
01JVWAAGYJKN322FY871XFT4P5,38,4,8,1.0,2,1,8,2,9,1.0,asocial
01JVWAAGYJKN322FY871XFT4P5,38,5,8,1.0,11,1,21,3,9,1.0,asocial
01JVWAAGYJKN322FY871XFT4P5,38,6,8,1.0,0,0,0,1,9,1.0,asocial
01JVWAAGYJKN322FY871XFT4P5,38,7,8,1.0,0,1,0,1,9,1.0,asocial
01JVWAAGYJKN322FY871XFT4P5,38,8,8,1.0,2,0,56,3,9,1.0,asocial
01JVWAAGYJKN322FY871XFT4P5,38,9,8,1.0,16,0,208,22,9,1.0,asocial
01JVWAAGYJKN322FY871XFT4P5,39,0,8,1.0,0,0,0,1,8,1.0,asocial
01JVWAAGYJKN322FY871XFT4P5,39,1,8,1.0,0,0,3,1,8,1.0,asocial
01JVWAAGYJKN322FY871XFT4P5,39,2,8,1.0,0,0,0,1,8,1.0,asocial
01JVWAAGYJKN322FY871XFT4P5,39,3,8,1.0,2,1,32,5,8,1.0,asocial
01JVWAAGYJKN322FY871XFT4P5,39,4,8,1.0,2,1,8,2,8,1.0,asocial
01JVWAAGYJKN322FY871XFT4P5,39,5,8,1.0,11,1,21,3,8,1.0,asocial
01JVWAAGYJKN322FY871XFT4P5,39,6,8,1.0,0,0,0,1,8,1.0,asocial
01JVWAAGYJKN322FY871XFT4P5,39,7,8,1.0,0,1,0,1,8,1.0,asocial
01JVWAAGYJKN322FY871XFT4P5,39,8,8,1.0,3,0,61,3,8,1.0,asocial
01JVWAAGYJKN322FY871XFT4P5,39,9,8,1.0,16,0,211,23,8,1.0,asocial
01JVWAAGYJKN322FY871XFT4P5,40,0,8,0.0,0,0,0,1,8,1.0,asocial
01JVWAAGYJKN322FY871XFT4P5,40,1,8,0.0,0,0,3,1,8,1.0,asocial
01JVWAAGYJKN322FY871XFT4P5,40,2,8,0.0,0,0,0,1,8,1.0,asocial
01JVWAAGYJKN322FY871XFT4P5,40,3,8,0.0,2,1,33,5,8,1.0,asocial
01JVWAAGYJKN322FY871XFT4P5,40,4,8,0.0,2,1,8,2,8,1.0,asocial
01JVWAAGYJKN322FY871XFT4P5,40,5,8,0.0,11,1,21,3,8,1.0,asocial
01JVWAAGYJKN322FY871XFT4P5,40,6,8,0.0,0,0,0,1,8,1.0,asocial
01JVWAAGYJKN322FY871XFT4P5,40,7,8,0.0,0,1,0,1,8,1.0,asocial
01JVWAAGYJKN322FY871XFT4P5,40,8,8,0.0,4,0,65,4,8,1.0,asocial
01JVWAAGYJKN322FY871XFT4P5,40,9,8,0.0,16,0,214,24,8,1.0,asocial
01JVWAAGYJKN322FY871XFT4P5,41,0,5,1.0,0,0,0,1,8,0.0,asocial
01JVWAAGYJKN322FY871XFT4P5,41,1,5,1.0,0,0,3,1,8,0.0,asocial
01JVWAAGYJKN322FY871XFT4P5,41,2,5,1.0,0,0,0,1,8,0.0,asocial
01JVWAAGYJKN322FY871XFT4P5,41,3,5,1.0,2,1,34,5,8,0.0,asocial
01JVWAAGYJKN322FY871XFT4P5,41,4,5,1.0,2,1,8,2,8,0.0,asocial
01JVWAAGYJKN322FY871XFT4P5,41,5,5,1.0,11,1,21,3,8,0.0,asocial
01JVWAAGYJKN322FY871XFT4P5,41,6,5,1.0,0,0,0,1,8,0.0,asocial
01JVWAAGYJKN322FY871XFT4P5,41,7,5,1.0,0,1,0,1,8,0.0,asocial
01JVWAAGYJKN322FY871XFT4P5,41,8,5,1.0,4,1,67,7,8,0.0,asocial
01JVWAAGYJKN322FY871XFT4P5,41,9,5,1.0,16,0,217,25,8,0.0,asocial
01JVWAAGYJKN322FY871XFT4P5,42,0,1,1.0,0,0,0,1,5,1.0,asocial
01JVWAAGYJKN322FY871XFT4P5,42,1,1,1.0,0,0,3,1,5,1.0,asocial
01JVWAAGYJKN322FY871XFT4P5,42,2,1,1.0,0,0,0,1,5,1.0,asocial
01JVWAAGYJKN322FY871XFT4P5,42,3,1,1.0,2,1,34,6,5,1.0,asocial
01JVWAAGYJKN322FY871XFT4P5,42,4,1,1.0,2,1,8,2,5,1.0,asocial
01JVWAAGYJKN322FY871XFT4P5,42,5,1,1.0,12,1,22,3,5,1.0,asocial
01JVWAAGYJKN322FY871XFT4P5,42,6,1,1.0,0,0,0,1,5,1.0,asocial
01JVWAAGYJKN322FY871XFT4P5,42,7,1,1.0,0,1,0,1,5,1.0,asocial
01JVWAAGYJKN322FY871XFT4P5,42,8,1,1.0,4,1,70,7,5,1.0,asocial
01JVWAAGYJKN322FY871XFT4P5,42,9,1,1.0,16,0,220,26,5,1.0,asocial
01JVWAAGYJKN322FY871XFT4P5,43,0,9,1.0,0,0,0,1,1,1.0,asocial
01JVWAAGYJKN322FY871XFT4P5,43,1,9,1.0,1,0,4,1,1,1.0,asocial
01JVWAAGYJKN322FY871XFT4P5,43,2,9,1.0,0,0,0,1,1,1.0,asocial
01JVWAAGYJKN322FY871XFT4P5,43,3,9,1.0,2,1,35,6,1,1.0,asocial
01JVWAAGYJKN322FY871XFT4P5,43,4,9,1.0,2,1,8,2,1,1.0,asocial
01JVWAAGYJKN322FY871XFT4P5,43,5,9,1.0,12,1,23,3,1,1.0,asocial
01JVWAAGYJKN322FY871XFT4P5,43,6,9,1.0,0,0,0,1,1,1.0,asocial
01JVWAAGYJKN322FY871XFT4P5,43,7,9,1.0,0,1,0,1,1,1.0,asocial
01JVWAAGYJKN322FY871XFT4P5,43,8,9,1.0,4,1,73,7,1,1.0,asocial
01JVWAAGYJKN322FY871XFT4P5,43,9,9,1.0,16,0,224,26,1,1.0,asocial
01JVWAAGYJKN322FY871XFT4P5,44,0,2,1.0,0,0,0,1,9,1.0,asocial
01JVWAAGYJKN322FY871XFT4P5,44,1,2,1.0,1,0,4,1,9,1.0,asocial
01JVWAAGYJKN322FY871XFT4P5,44,2,2,1.0,0,0,0,1,9,1.0,asocial
01JVWAAGYJKN322FY871XFT4P5,44,3,2,1.0,2,1,36,6,9,1.0,asocial
01JVWAAGYJKN322FY871XFT4P5,44,4,2,1.0,2,1,8,2,9,1.0,asocial
01JVWAAGYJKN322FY871XFT4P5,44,5,2,1.0,12,1,24,3,9,1.0,asocial
01JVWAAGYJKN322FY871XFT4P5,44,6,2,1.0,0,0,0,1,9,1.0,asocial
01JVWAAGYJKN322FY871XFT4P5,44,7,2,1.0,0,1,0,1,9,1.0,asocial
01JVWAAGYJKN322FY871XFT4P5,44,8,2,1.0,4,1,76,7,9,1.0,asocial
01JVWAAGYJKN322FY871XFT4P5,44,9,2,1.0,17,0,229,26,9,1.0,asocial
01JVWAAGYJKN322FY871XFT4P5,45,0,2,1.0,0,0,0,1,2,1.0,asocial
01JVWAAGYJKN322FY871XFT4P5,45,1,2,1.0,1,0,4,1,2,1.0,asocial
01JVWAAGYJKN322FY871XFT4P5,45,2,2,1.0,1,0,1,1,2,1.0,asocial
01JVWAAGYJKN322FY871XFT4P5,45,3,2,1.0,2,1,37,6,2,1.0,asocial
01JVWAAGYJKN322FY871XFT4P5,45,4,2,1.0,2,1,8,2,2,1.0,asocial
01JVWAAGYJKN322FY871XFT4P5,45,5,2,1.0,12,1,25,3,2,1.0,asocial
01JVWAAGYJKN322FY871XFT4P5,45,6,2,1.0,0,0,0,1,2,1.0,asocial
01JVWAAGYJKN322FY871XFT4P5,45,7,2,1.0,0,1,0,1,2,1.0,asocial
01JVWAAGYJKN322FY871XFT4P5,45,8,2,1.0,4,1,79,7,2,1.0,asocial
01JVWAAGYJKN322FY871XFT4P5,45,9,2,1.0,17,0,232,27,2,1.0,asocial
01JVWAAGYJKN322FY871XFT4P5,46,0,2,1.0,0,0,0,1,2,1.0,asocial
01JVWAAGYJKN322FY871XFT4P5,46,1,2,1.0,1,0,4,1,2,1.0,asocial
01JVWAAGYJKN322FY871XFT4P5,46,2,2,1.0,2,0,2,1,2,1.0,asocial
01JVWAAGYJKN322FY871XFT4P5,46,3,2,1.0,2,1,38,6,2,1.0,asocial
01JVWAAGYJKN322FY871XFT4P5,46,4,2,1.0,2,1,8,2,2,1.0,asocial
01JVWAAGYJKN322FY871XFT4P5,46,5,2,1.0,12,1,26,3,2,1.0,asocial
01JVWAAGYJKN322FY871XFT4P5,46,6,2,1.0,0,0,0,1,2,1.0,asocial
01JVWAAGYJKN322FY871XFT4P5,46,7,2,1.0,0,1,0,1,2,1.0,asocial
01JVWAAGYJKN322FY871XFT4P5,46,8,2,1.0,4,1,81,8,2,1.0,asocial
01JVWAAGYJKN322FY871XFT4P5,46,9,2,1.0,17,0,235,28,2,1.0,asocial
01JVWAAGYJKN322FY871XFT4P5,47,0,6,1.0,0,0,0,1,2,1.0,asocial
01JVWAAGYJKN322FY871XFT4P5,47,1,6,1.0,1,0,4,1,2,1.0,asocial
01JVWAAGYJKN322FY871XFT4P5,47,2,6,1.0,3,0,3,1,2,1.0,asocial
01JVWAAGYJKN322FY871XFT4P5,47,3,6,1.0,2,1,39,6,2,1.0,asocial
01JVWAAGYJKN322FY871XFT4P5,47,4,6,1.0,2,1,8,2,2,1.0,asocial
01JVWAAGYJKN322FY871XFT4P5,47,5,6,1.0,12,1,27,3,2,1.0,asocial
01JVWAAGYJKN322FY871XFT4P5,47,6,6,1.0,0,0,0,1,2,1.0,asocial
01JVWAAGYJKN322FY871XFT4P5,47,7,6,1.0,0,1,0,1,2,1.0,asocial
01JVWAAGYJKN322FY871XFT4P5,47,8,6,1.0,4,1,83,9,2,1.0,asocial
01JVWAAGYJKN322FY871XFT4P5,47,9,6,1.0,17,0,238,29,2,1.0,asocial
01JVWAAGYJKN322FY871XFT4P5,48,0,0,1.0,0,0,0,1,6,1.0,asocial
01JVWAAGYJKN322FY871XFT4P5,48,1,0,1.0,1,0,4,1,6,1.0,asocial
01JVWAAGYJKN322FY871XFT4P5,48,2,0,1.0,3,0,3,1,6,1.0,asocial
01JVWAAGYJKN322FY871XFT4P5,48,3,0,1.0,2,1,40,6,6,1.0,asocial
01JVWAAGYJKN322FY871XFT4P5,48,4,0,1.0,2,1,8,2,6,1.0,asocial
01JVWAAGYJKN322FY871XFT4P5,48,5,0,1.0,12,1,29,3,6,1.0,asocial
01JVWAAGYJKN322FY871XFT4P5,48,6,0,1.0,1,0,1,1,6,1.0,asocial
01JVWAAGYJKN322FY871XFT4P5,48,7,0,1.0,0,1,0,1,6,1.0,asocial
01JVWAAGYJKN322FY871XFT4P5,48,8,0,1.0,4,1,86,9,6,1.0,asocial
01JVWAAGYJKN322FY871XFT4P5,48,9,0,1.0,17,0,241,29,6,1.0,asocial
01JVWAAGYJKN322FY871XFT4P5,49,0,1,1.0,1,0,1,1,0,1.0,asocial
01JVWAAGYJKN322FY871XFT4P5,49,1,1,1.0,1,0,4,1,0,1.0,asocial
01JVWAAGYJKN322FY871XFT4P5,49,2,1,1.0,3,0,3,1,0,1.0,asocial
01JVWAAGYJKN322FY871XFT4P5,49,3,1,1.0,2,1,41,6,0,1.0,asocial
01JVWAAGYJKN322FY871XFT4P5,49,4,1,1.0,2,1,8,2,0,1.0,asocial
01JVWAAGYJKN322FY871XFT4P5,49,5,1,1.0,12,1,31,3,0,1.0,asocial
01JVWAAGYJKN322FY871XFT4P5,49,6,1,1.0,1,0,1,1,0,1.0,asocial
01JVWAAGYJKN322FY871XFT4P5,49,7,1,1.0,0,1,0,1,0,1.0,asocial
01JVWAAGYJKN322FY871XFT4P5,49,8,1,1.0,4,1,87,10,0,1.0,asocial
01JVWAAGYJKN322FY871XFT4P5,49,9,1,1.0,17,0,245,29,0,1.0,asocial
01JVWAAGYJKN322FY871XFT4P5,50,0,1,1.0,1,0,1,1,1,1.0,asocial
01JVWAAGYJKN322FY871XFT4P5,50,1,1,1.0,2,0,5,1,1,1.0,asocial
01JVWAAGYJKN322FY871XFT4P5,50,2,1,1.0,3,0,3,1,1,1.0,asocial
01JVWAAGYJKN322FY871XFT4P5,50,3,1,1.0,2,1,43,6,1,1.0,asocial
01JVWAAGYJKN322FY871XFT4P5,50,4,1,1.0,2,1,8,2,1,1.0,asocial
01JVWAAGYJKN322FY871XFT4P5,50,5,1,1.0,12,1,32,4,1,1.0,asocial
01JVWAAGYJKN322FY871XFT4P5,50,6,1,1.0,1,0,1,1,1,1.0,asocial
01JVWAAGYJKN322FY871XFT4P5,50,7,1,1.0,0,1,0,1,1,1.0,asocial
01JVWAAGYJKN322FY871XFT4P5,50,8,1,1.0,4,1,87,10,1,1.0,asocial
01JVWAAGYJKN322FY871XFT4P5,50,9,1,1.0,17,0,249,30,1,1.0,asocial
01JVWAAGYJKN322FY871XFT4P5,51,0,7,1.0,1,0,1,1,1,1.0,asocial
01JVWAAGYJKN322FY871XFT4P5,51,1,7,1.0,3,0,6,1,1,1.0,asocial
01JVWAAGYJKN322FY871XFT4P5,51,2,7,1.0,3,0,3,1,1,1.0,asocial
01JVWAAGYJKN322FY871XFT4P5,51,3,7,1.0,2,1,45,6,1,1.0,asocial
01JVWAAGYJKN322FY871XFT4P5,51,4,7,1.0,2,1,8,2,1,1.0,asocial
01JVWAAGYJKN322FY871XFT4P5,51,5,7,1.0,12,1,32,4,1,1.0,asocial
01JVWAAGYJKN322FY871XFT4P5,51,6,7,1.0,1,0,1,1,1,1.0,asocial
01JVWAAGYJKN322FY871XFT4P5,51,7,7,1.0,0,1,0,1,1,1.0,asocial
01JVWAAGYJKN322FY871XFT4P5,51,8,7,1.0,4,1,89,10,1,1.0,asocial
01JVWAAGYJKN322FY871XFT4P5,51,9,7,1.0,17,0,254,30,1,1.0,asocial
01JVWABHQK8MST7R4WYM2EN0FD,1,0,9,1.0,0,0,0,0,-1,,asocial
01JVWABHQK8MST7R4WYM2EN0FD,1,1,9,1.0,0,0,0,0,-1,,asocial
01JVWABHQK8MST7R4WYM2EN0FD,1,2,9,1.0,0,0,0,0,-1,,asocial
01JVWABHQK8MST7R4WYM2EN0FD,1,3,9,1.0,0,0,0,0,-1,,asocial
01JVWABHQK8MST7R4WYM2EN0FD,1,4,9,1.0,0,0,0,0,-1,,asocial
01JVWABHQK8MST7R4WYM2EN0FD,1,5,9,1.0,0,0,0,0,-1,,asocial
01JVWABHQK8MST7R4WYM2EN0FD,1,6,9,1.0,0,0,0,0,-1,,asocial
01JVWABHQK8MST7R4WYM2EN0FD,1,7,9,1.0,0,0,0,0,-1,,asocial
01JVWABHQK8MST7R4WYM2EN0FD,1,8,9,1.0,0,0,0,0,-1,,asocial
01JVWABHQK8MST7R4WYM2EN0FD,1,9,9,1.0,0,0,0,0,-1,,asocial
01JVWABHQK8MST7R4WYM2EN0FD,2,0,8,1.0,0,0,0,1,9,1.0,asocial
01JVWABHQK8MST7R4WYM2EN0FD,2,1,8,1.0,0,0,1,0,9,1.0,asocial
01JVWABHQK8MST7R4WYM2EN0FD,2,2,8,1.0,0,0,0,1,9,1.0,asocial
01JVWABHQK8MST7R4WYM2EN0FD,2,3,8,1.0,0,0,1,0,9,1.0,asocial
01JVWABHQK8MST7R4WYM2EN0FD,2,4,8,1.0,0,0,1,0,9,1.0,asocial
01JVWABHQK8MST7R4WYM2EN0FD,2,5,8,1.0,0,0,0,0,9,1.0,asocial
01JVWABHQK8MST7R4WYM2EN0FD,2,6,8,1.0,0,0,0,1,9,1.0,asocial
01JVWABHQK8MST7R4WYM2EN0FD,2,7,8,1.0,0,0,0,1,9,1.0,asocial
01JVWABHQK8MST7R4WYM2EN0FD,2,8,8,1.0,0,0,1,0,9,1.0,asocial
01JVWABHQK8MST7R4WYM2EN0FD,2,9,8,1.0,1,0,1,0,9,1.0,asocial
01JVWABHQK8MST7R4WYM2EN0FD,3,0,9,1.0,0,0,0,1,8,1.0,asocial
01JVWABHQK8MST7R4WYM2EN0FD,3,1,9,1.0,0,0,2,0,8,1.0,asocial
01JVWABHQK8MST7R4WYM2EN0FD,3,2,9,1.0,0,0,0,1,8,1.0,asocial
01JVWABHQK8MST7R4WYM2EN0FD,3,3,9,1.0,0,0,3,0,8,1.0,asocial
01JVWABHQK8MST7R4WYM2EN0FD,3,4,9,1.0,0,0,2,0,8,1.0,asocial
01JVWABHQK8MST7R4WYM2EN0FD,3,5,9,1.0,0,0,1,0,8,1.0,asocial
01JVWABHQK8MST7R4WYM2EN0FD,3,6,9,1.0,0,0,0,1,8,1.0,asocial
01JVWABHQK8MST7R4WYM2EN0FD,3,7,9,1.0,0,0,0,1,8,1.0,asocial
01JVWABHQK8MST7R4WYM2EN0FD,3,8,9,1.0,1,0,3,0,8,1.0,asocial
01JVWABHQK8MST7R4WYM2EN0FD,3,9,9,1.0,1,0,4,0,8,1.0,asocial
01JVWABHQK8MST7R4WYM2EN0FD,4,0,9,1.0,0,0,0,1,9,1.0,asocial
01JVWABHQK8MST7R4WYM2EN0FD,4,1,9,1.0,0,0,2,0,9,1.0,asocial
01JVWABHQK8MST7R4WYM2EN0FD,4,2,9,1.0,0,0,0,1,9,1.0,asocial
01JVWABHQK8MST7R4WYM2EN0FD,4,3,9,1.0,0,0,4,0,9,1.0,asocial
01JVWABHQK8MST7R4WYM2EN0FD,4,4,9,1.0,0,0,3,0,9,1.0,asocial
01JVWABHQK8MST7R4WYM2EN0FD,4,5,9,1.0,0,0,1,0,9,1.0,asocial
01JVWABHQK8MST7R4WYM2EN0FD,4,6,9,1.0,0,0,0,1,9,1.0,asocial
01JVWABHQK8MST7R4WYM2EN0FD,4,7,9,1.0,0,0,0,1,9,1.0,asocial
01JVWABHQK8MST7R4WYM2EN0FD,4,8,9,1.0,1,0,3,0,9,1.0,asocial
01JVWABHQK8MST7R4WYM2EN0FD,4,9,9,1.0,2,0,12,0,9,1.0,asocial
01JVWABHQK8MST7R4WYM2EN0FD,5,0,9,1.0,0,0,0,1,9,1.0,asocial
01JVWABHQK8MST7R4WYM2EN0FD,5,1,9,1.0,0,0,2,0,9,1.0,asocial
01JVWABHQK8MST7R4WYM2EN0FD,5,2,9,1.0,0,0,0,1,9,1.0,asocial
01JVWABHQK8MST7R4WYM2EN0FD,5,3,9,1.0,0,0,4,0,9,1.0,asocial
01JVWABHQK8MST7R4WYM2EN0FD,5,4,9,1.0,0,0,3,0,9,1.0,asocial
01JVWABHQK8MST7R4WYM2EN0FD,5,5,9,1.0,0,0,1,0,9,1.0,asocial
01JVWABHQK8MST7R4WYM2EN0FD,5,6,9,1.0,0,0,0,1,9,1.0,asocial
01JVWABHQK8MST7R4WYM2EN0FD,5,7,9,1.0,0,0,0,1,9,1.0,asocial
01JVWABHQK8MST7R4WYM2EN0FD,5,8,9,1.0,1,0,3,0,9,1.0,asocial
01JVWABHQK8MST7R4WYM2EN0FD,5,9,9,1.0,3,0,22,0,9,1.0,asocial
01JVWABHQK8MST7R4WYM2EN0FD,6,0,9,1.0,0,0,0,1,9,1.0,asocial
01JVWABHQK8MST7R4WYM2EN0FD,6,1,9,1.0,0,0,2,0,9,1.0,asocial
01JVWABHQK8MST7R4WYM2EN0FD,6,2,9,1.0,0,0,0,1,9,1.0,asocial
01JVWABHQK8MST7R4WYM2EN0FD,6,3,9,1.0,0,0,5,0,9,1.0,asocial
01JVWABHQK8MST7R4WYM2EN0FD,6,4,9,1.0,0,0,3,0,9,1.0,asocial
01JVWABHQK8MST7R4WYM2EN0FD,6,5,9,1.0,0,0,1,0,9,1.0,asocial
01JVWABHQK8MST7R4WYM2EN0FD,6,6,9,1.0,0,0,0,1,9,1.0,asocial
01JVWABHQK8MST7R4WYM2EN0FD,6,7,9,1.0,0,0,0,1,9,1.0,asocial
01JVWABHQK8MST7R4WYM2EN0FD,6,8,9,1.0,1,0,3,0,9,1.0,asocial
01JVWABHQK8MST7R4WYM2EN0FD,6,9,9,1.0,4,0,30,1,9,1.0,asocial
01JVWABHQK8MST7R4WYM2EN0FD,7,0,9,1.0,0,0,0,1,9,1.0,asocial
01JVWABHQK8MST7R4WYM2EN0FD,7,1,9,1.0,0,0,2,0,9,1.0,asocial
01JVWABHQK8MST7R4WYM2EN0FD,7,2,9,1.0,0,0,0,1,9,1.0,asocial
01JVWABHQK8MST7R4WYM2EN0FD,7,3,9,1.0,0,0,7,0,9,1.0,asocial
01JVWABHQK8MST7R4WYM2EN0FD,7,4,9,1.0,0,0,3,0,9,1.0,asocial
01JVWABHQK8MST7R4WYM2EN0FD,7,5,9,1.0,0,0,1,0,9,1.0,asocial
01JVWABHQK8MST7R4WYM2EN0FD,7,6,9,1.0,0,0,0,1,9,1.0,asocial
01JVWABHQK8MST7R4WYM2EN0FD,7,7,9,1.0,0,0,0,1,9,1.0,asocial
01JVWABHQK8MST7R4WYM2EN0FD,7,8,9,1.0,1,0,3,0,9,1.0,asocial
01JVWABHQK8MST7R4WYM2EN0FD,7,9,9,1.0,5,0,38,1,9,1.0,asocial
01JVWABHQK8MST7R4WYM2EN0FD,8,0,9,1.0,0,0,0,1,9,1.0,asocial
01JVWABHQK8MST7R4WYM2EN0FD,8,1,9,1.0,0,0,2,0,9,1.0,asocial
01JVWABHQK8MST7R4WYM2EN0FD,8,2,9,1.0,0,0,0,1,9,1.0,asocial
01JVWABHQK8MST7R4WYM2EN0FD,8,3,9,1.0,0,0,8,1,9,1.0,asocial
01JVWABHQK8MST7R4WYM2EN0FD,8,4,9,1.0,0,0,3,0,9,1.0,asocial
01JVWABHQK8MST7R4WYM2EN0FD,8,5,9,1.0,0,0,1,0,9,1.0,asocial
01JVWABHQK8MST7R4WYM2EN0FD,8,6,9,1.0,0,0,0,1,9,1.0,asocial
01JVWABHQK8MST7R4WYM2EN0FD,8,7,9,1.0,0,0,0,1,9,1.0,asocial
01JVWABHQK8MST7R4WYM2EN0FD,8,8,9,1.0,1,0,3,0,9,1.0,asocial
01JVWABHQK8MST7R4WYM2EN0FD,8,9,9,1.0,6,0,45,2,9,1.0,asocial
01JVWABHQK8MST7R4WYM2EN0FD,9,0,9,1.0,0,0,0,1,9,1.0,asocial
01JVWABHQK8MST7R4WYM2EN0FD,9,1,9,1.0,0,0,2,0,9,1.0,asocial
01JVWABHQK8MST7R4WYM2EN0FD,9,2,9,1.0,0,0,0,1,9,1.0,asocial
01JVWABHQK8MST7R4WYM2EN0FD,9,3,9,1.0,0,0,9,1,9,1.0,asocial
01JVWABHQK8MST7R4WYM2EN0FD,9,4,9,1.0,0,0,3,0,9,1.0,asocial
01JVWABHQK8MST7R4WYM2EN0FD,9,5,9,1.0,0,0,1,0,9,1.0,asocial
01JVWABHQK8MST7R4WYM2EN0FD,9,6,9,1.0,0,0,0,1,9,1.0,asocial
01JVWABHQK8MST7R4WYM2EN0FD,9,7,9,1.0,0,0,0,1,9,1.0,asocial
01JVWABHQK8MST7R4WYM2EN0FD,9,8,9,1.0,1,0,3,0,9,1.0,asocial
01JVWABHQK8MST7R4WYM2EN0FD,9,9,9,1.0,7,0,54,2,9,1.0,asocial
01JVWABHQK8MST7R4WYM2EN0FD,10,0,9,1.0,0,0,0,1,9,1.0,asocial
01JVWABHQK8MST7R4WYM2EN0FD,10,1,9,1.0,0,0,2,0,9,1.0,asocial
01JVWABHQK8MST7R4WYM2EN0FD,10,2,9,1.0,0,0,0,1,9,1.0,asocial
01JVWABHQK8MST7R4WYM2EN0FD,10,3,9,1.0,0,0,10,1,9,1.0,asocial
01JVWABHQK8MST7R4WYM2EN0FD,10,4,9,1.0,0,0,3,0,9,1.0,asocial
01JVWABHQK8MST7R4WYM2EN0FD,10,5,9,1.0,0,0,1,0,9,1.0,asocial
01JVWABHQK8MST7R4WYM2EN0FD,10,6,9,1.0,0,0,0,1,9,1.0,asocial
01JVWABHQK8MST7R4WYM2EN0FD,10,7,9,1.0,0,0,0,1,9,1.0,asocial
01JVWABHQK8MST7R4WYM2EN0FD,10,8,9,1.0,1,0,4,0,9,1.0,asocial
01JVWABHQK8MST7R4WYM2EN0FD,10,9,9,1.0,8,0,62,2,9,1.0,asocial
01JVWABHQK8MST7R4WYM2EN0FD,11,0,9,1.0,0,0,0,1,9,1.0,asocial
01JVWABHQK8MST7R4WYM2EN0FD,11,1,9,1.0,0,0,2,0,9,1.0,asocial
01JVWABHQK8MST7R4WYM2EN0FD,11,2,9,1.0,0,0,0,1,9,1.0,asocial
01JVWABHQK8MST7R4WYM2EN0FD,11,3,9,1.0,0,0,10,2,9,1.0,asocial
01JVWABHQK8MST7R4WYM2EN0FD,11,4,9,1.0,0,0,4,0,9,1.0,asocial
01JVWABHQK8MST7R4WYM2EN0FD,11,5,9,1.0,0,0,1,0,9,1.0,asocial
01JVWABHQK8MST7R4WYM2EN0FD,11,6,9,1.0,0,0,0,1,9,1.0,asocial
01JVWABHQK8MST7R4WYM2EN0FD,11,7,9,1.0,0,0,0,1,9,1.0,asocial
01JVWABHQK8MST7R4WYM2EN0FD,11,8,9,1.0,1,0,4,0,9,1.0,asocial
01JVWABHQK8MST7R4WYM2EN0FD,11,9,9,1.0,9,0,70,2,9,1.0,asocial
01JVWABHQK8MST7R4WYM2EN0FD,12,0,9,1.0,0,0,0,1,9,1.0,asocial
01JVWABHQK8MST7R4WYM2EN0FD,12,1,9,1.0,0,0,2,0,9,1.0,asocial
01JVWABHQK8MST7R4WYM2EN0FD,12,2,9,1.0,0,0,0,1,9,1.0,asocial
01JVWABHQK8MST7R4WYM2EN0FD,12,3,9,1.0,0,0,10,2,9,1.0,asocial
01JVWABHQK8MST7R4WYM2EN0FD,12,4,9,1.0,0,0,5,0,9,1.0,asocial
01JVWABHQK8MST7R4WYM2EN0FD,12,5,9,1.0,0,0,1,0,9,1.0,asocial
01JVWABHQK8MST7R4WYM2EN0FD,12,6,9,1.0,0,0,0,1,9,1.0,asocial
01JVWABHQK8MST7R4WYM2EN0FD,12,7,9,1.0,0,0,0,1,9,1.0,asocial
01JVWABHQK8MST7R4WYM2EN0FD,12,8,9,1.0,1,0,4,0,9,1.0,asocial
01JVWABHQK8MST7R4WYM2EN0FD,12,9,9,1.0,10,0,79,2,9,1.0,asocial
01JVWABHQK8MST7R4WYM2EN0FD,13,0,9,0.0,0,0,0,1,9,1.0,asocial
01JVWABHQK8MST7R4WYM2EN0FD,13,1,9,0.0,0,0,2,0,9,1.0,asocial
01JVWABHQK8MST7R4WYM2EN0FD,13,2,9,0.0,0,0,0,1,9,1.0,asocial
01JVWABHQK8MST7R4WYM2EN0FD,13,3,9,0.0,0,0,10,3,9,1.0,asocial
01JVWABHQK8MST7R4WYM2EN0FD,13,4,9,0.0,0,0,6,0,9,1.0,asocial
01JVWABHQK8MST7R4WYM2EN0FD,13,5,9,0.0,0,0,1,0,9,1.0,asocial
01JVWABHQK8MST7R4WYM2EN0FD,13,6,9,0.0,0,0,0,1,9,1.0,asocial
01JVWABHQK8MST7R4WYM2EN0FD,13,7,9,0.0,0,0,0,1,9,1.0,asocial
01JVWABHQK8MST7R4WYM2EN0FD,13,8,9,0.0,1,0,4,0,9,1.0,asocial
01JVWABHQK8MST7R4WYM2EN0FD,13,9,9,0.0,11,0,87,2,9,1.0,asocial
01JVWABHQK8MST7R4WYM2EN0FD,14,0,9,1.0,0,0,0,1,9,0.0,asocial
01JVWABHQK8MST7R4WYM2EN0FD,14,1,9,1.0,0,0,2,0,9,0.0,asocial
01JVWABHQK8MST7R4WYM2EN0FD,14,2,9,1.0,0,0,0,1,9,0.0,asocial
01JVWABHQK8MST7R4WYM2EN0FD,14,3,9,1.0,0,0,10,3,9,0.0,asocial
01JVWABHQK8MST7R4WYM2EN0FD,14,4,9,1.0,0,0,7,0,9,0.0,asocial
01JVWABHQK8MST7R4WYM2EN0FD,14,5,9,1.0,0,0,1,0,9,0.0,asocial
01JVWABHQK8MST7R4WYM2EN0FD,14,6,9,1.0,0,0,0,1,9,0.0,asocial
01JVWABHQK8MST7R4WYM2EN0FD,14,7,9,1.0,0,0,0,1,9,0.0,asocial
01JVWABHQK8MST7R4WYM2EN0FD,14,8,9,1.0,1,0,4,0,9,0.0,asocial
01JVWABHQK8MST7R4WYM2EN0FD,14,9,9,1.0,11,1,94,4,9,0.0,asocial
01JVWABHQK8MST7R4WYM2EN0FD,15,0,9,1.0,0,0,0,1,9,1.0,asocial
01JVWABHQK8MST7R4WYM2EN0FD,15,1,9,1.0,0,0,2,0,9,1.0,asocial
01JVWABHQK8MST7R4WYM2EN0FD,15,2,9,1.0,0,0,0,1,9,1.0,asocial
01JVWABHQK8MST7R4WYM2EN0FD,15,3,9,1.0,0,0,11,3,9,1.0,asocial
01JVWABHQK8MST7R4WYM2EN0FD,15,4,9,1.0,0,0,8,1,9,1.0,asocial
01JVWABHQK8MST7R4WYM2EN0FD,15,5,9,1.0,0,0,1,0,9,1.0,asocial
01JVWABHQK8MST7R4WYM2EN0FD,15,6,9,1.0,0,0,0,1,9,1.0,asocial
01JVWABHQK8MST7R4WYM2EN0FD,15,7,9,1.0,0,0,0,1,9,1.0,asocial
01JVWABHQK8MST7R4WYM2EN0FD,15,8,9,1.0,1,0,4,0,9,1.0,asocial
01JVWABHQK8MST7R4WYM2EN0FD,15,9,9,1.0,12,1,101,4,9,1.0,asocial
01JVWABHQK8MST7R4WYM2EN0FD,16,0,9,1.0,0,0,0,1,9,1.0,asocial
01JVWABHQK8MST7R4WYM2EN0FD,16,1,9,1.0,0,0,2,0,9,1.0,asocial
01JVWABHQK8MST7R4WYM2EN0FD,16,2,9,1.0,0,0,0,1,9,1.0,asocial
01JVWABHQK8MST7R4WYM2EN0FD,16,3,9,1.0,0,0,12,3,9,1.0,asocial
01JVWABHQK8MST7R4WYM2EN0FD,16,4,9,1.0,0,0,8,1,9,1.0,asocial
01JVWABHQK8MST7R4WYM2EN0FD,16,5,9,1.0,0,0,1,0,9,1.0,asocial
01JVWABHQK8MST7R4WYM2EN0FD,16,6,9,1.0,0,0,0,1,9,1.0,asocial
01JVWABHQK8MST7R4WYM2EN0FD,16,7,9,1.0,0,0,0,1,9,1.0,asocial
01JVWABHQK8MST7R4WYM2EN0FD,16,8,9,1.0,1,0,5,0,9,1.0,asocial
01JVWABHQK8MST7R4WYM2EN0FD,16,9,9,1.0,13,1,108,5,9,1.0,asocial
01JVWABHQK8MST7R4WYM2EN0FD,17,0,9,1.0,0,0,0,1,9,1.0,asocial
01JVWABHQK8MST7R4WYM2EN0FD,17,1,9,1.0,0,0,2,0,9,1.0,asocial
01JVWABHQK8MST7R4WYM2EN0FD,17,2,9,1.0,0,0,0,1,9,1.0,asocial
01JVWABHQK8MST7R4WYM2EN0FD,17,3,9,1.0,0,0,13,3,9,1.0,asocial
01JVWABHQK8MST7R4WYM2EN0FD,17,4,9,1.0,0,0,8,1,9,1.0,asocial
01JVWABHQK8MST7R4WYM2EN0FD,17,5,9,1.0,0,0,1,0,9,1.0,asocial
01JVWABHQK8MST7R4WYM2EN0FD,17,6,9,1.0,0,0,0,1,9,1.0,asocial
01JVWABHQK8MST7R4WYM2EN0FD,17,7,9,1.0,0,0,0,1,9,1.0,asocial
01JVWABHQK8MST7R4WYM2EN0FD,17,8,9,1.0,1,0,7,0,9,1.0,asocial
01JVWABHQK8MST7R4WYM2EN0FD,17,9,9,1.0,14,1,114,6,9,1.0,asocial
01JVWABHQK8MST7R4WYM2EN0FD,18,0,9,0.0,0,0,0,1,9,1.0,asocial
01JVWABHQK8MST7R4WYM2EN0FD,18,1,9,0.0,0,0,2,0,9,1.0,asocial
01JVWABHQK8MST7R4WYM2EN0FD,18,2,9,0.0,0,0,0,1,9,1.0,asocial
01JVWABHQK8MST7R4WYM2EN0FD,18,3,9,0.0,0,0,13,3,9,1.0,asocial
01JVWABHQK8MST7R4WYM2EN0FD,18,4,9,0.0,0,0,8,1,9,1.0,asocial
01JVWABHQK8MST7R4WYM2EN0FD,18,5,9,0.0,0,0,1,0,9,1.0,asocial
01JVWABHQK8MST7R4WYM2EN0FD,18,6,9,0.0,0,0,0,1,9,1.0,asocial
01JVWABHQK8MST7R4WYM2EN0FD,18,7,9,0.0,0,0,0,1,9,1.0,asocial
01JVWABHQK8MST7R4WYM2EN0FD,18,8,9,0.0,1,0,8,1,9,1.0,asocial
01JVWABHQK8MST7R4WYM2EN0FD,18,9,9,0.0,15,1,121,7,9,1.0,asocial
01JVWABHQK8MST7R4WYM2EN0FD,19,0,9,1.0,0,0,0,1,9,0.0,asocial
01JVWABHQK8MST7R4WYM2EN0FD,19,1,9,1.0,0,0,3,0,9,0.0,asocial
01JVWABHQK8MST7R4WYM2EN0FD,19,2,9,1.0,0,0,0,1,9,0.0,asocial
01JVWABHQK8MST7R4WYM2EN0FD,19,3,9,1.0,0,0,14,3,9,0.0,asocial
01JVWABHQK8MST7R4WYM2EN0FD,19,4,9,1.0,0,0,8,1,9,0.0,asocial
01JVWABHQK8MST7R4WYM2EN0FD,19,5,9,1.0,0,0,1,0,9,0.0,asocial
01JVWABHQK8MST7R4WYM2EN0FD,19,6,9,1.0,0,0,0,1,9,0.0,asocial
01JVWABHQK8MST7R4WYM2EN0FD,19,7,9,1.0,0,0,0,1,9,0.0,asocial
01JVWABHQK8MST7R4WYM2EN0FD,19,8,9,1.0,1,0,8,1,9,0.0,asocial
01JVWABHQK8MST7R4WYM2EN0FD,19,9,9,1.0,15,2,126,10,9,0.0,asocial
01JVWABHQK8MST7R4WYM2EN0FD,20,0,9,1.0,0,0,0,1,9,1.0,asocial
01JVWABHQK8MST7R4WYM2EN0FD,20,1,9,1.0,0,0,3,1,9,1.0,asocial
01JVWABHQK8MST7R4WYM2EN0FD,20,2,9,1.0,0,0,0,1,9,1.0,asocial
01JVWABHQK8MST7R4WYM2EN0FD,20,3,9,1.0,0,0,14,3,9,1.0,asocial
01JVWABHQK8MST7R4WYM2EN0FD,20,4,9,1.0,0,0,8,1,9,1.0,asocial
01JVWABHQK8MST7R4WYM2EN0FD,20,5,9,1.0,0,0,1,0,9,1.0,asocial
01JVWABHQK8MST7R4WYM2EN0FD,20,6,9,1.0,0,0,0,1,9,1.0,asocial
01JVWABHQK8MST7R4WYM2EN0FD,20,7,9,1.0,0,0,0,1,9,1.0,asocial
01JVWABHQK8MST7R4WYM2EN0FD,20,8,9,1.0,1,0,8,1,9,1.0,asocial
01JVWABHQK8MST7R4WYM2EN0FD,20,9,9,1.0,16,2,134,11,9,1.0,asocial
01JVWABHQK8MST7R4WYM2EN0FD,21,0,9,0.0,0,0,0,1,9,1.0,asocial
01JVWABHQK8MST7R4WYM2EN0FD,21,1,9,0.0,0,0,3,1,9,1.0,asocial
01JVWABHQK8MST7R4WYM2EN0FD,21,2,9,0.0,0,0,0,1,9,1.0,asocial
01JVWABHQK8MST7R4WYM2EN0FD,21,3,9,0.0,0,0,15,3,9,1.0,asocial
01JVWABHQK8MST7R4WYM2EN0FD,21,4,9,0.0,0,0,8,1,9,1.0,asocial
01JVWABHQK8MST7R4WYM2EN0FD,21,5,9,0.0,0,0,2,0,9,1.0,asocial
01JVWABHQK8MST7R4WYM2EN0FD,21,6,9,0.0,0,0,0,1,9,1.0,asocial
01JVWABHQK8MST7R4WYM2EN0FD,21,7,9,0.0,0,0,0,1,9,1.0,asocial
01JVWABHQK8MST7R4WYM2EN0FD,21,8,9,0.0,1,0,9,1,9,1.0,asocial
01JVWABHQK8MST7R4WYM2EN0FD,21,9,9,0.0,17,2,140,12,9,1.0,asocial
01JVWABHQK8MST7R4WYM2EN0FD,22,0,9,1.0,0,0,0,1,9,0.0,asocial
01JVWABHQK8MST7R4WYM2EN0FD,22,1,9,1.0,0,0,3,1,9,0.0,asocial
01JVWABHQK8MST7R4WYM2EN0FD,22,2,9,1.0,0,0,0,1,9,0.0,asocial
01JVWABHQK8MST7R4WYM2EN0FD,22,3,9,1.0,0,0,16,3,9,0.0,asocial
01JVWABHQK8MST7R4WYM2EN0FD,22,4,9,1.0,0,0,8,1,9,0.0,asocial
01JVWABHQK8MST7R4WYM2EN0FD,22,5,9,1.0,0,0,4,0,9,0.0,asocial
01JVWABHQK8MST7R4WYM2EN0FD,22,6,9,1.0,0,0,0,1,9,0.0,asocial
01JVWABHQK8MST7R4WYM2EN0FD,22,7,9,1.0,0,0,0,1,9,0.0,asocial
01JVWABHQK8MST7R4WYM2EN0FD,22,8,9,1.0,1,0,10,1,9,0.0,asocial
01JVWABHQK8MST7R4WYM2EN0FD,22,9,9,1.0,17,3,145,13,9,0.0,asocial
01JVWABHQK8MST7R4WYM2EN0FD,23,0,9,1.0,0,0,0,1,9,1.0,asocial
01JVWABHQK8MST7R4WYM2EN0FD,23,1,9,1.0,0,0,3,1,9,1.0,asocial
01JVWABHQK8MST7R4WYM2EN0FD,23,2,9,1.0,0,0,0,1,9,1.0,asocial
01JVWABHQK8MST7R4WYM2EN0FD,23,3,9,1.0,0,0,16,3,9,1.0,asocial
01JVWABHQK8MST7R4WYM2EN0FD,23,4,9,1.0,0,0,8,1,9,1.0,asocial
01JVWABHQK8MST7R4WYM2EN0FD,23,5,9,1.0,0,0,6,0,9,1.0,asocial
01JVWABHQK8MST7R4WYM2EN0FD,23,6,9,1.0,0,0,0,1,9,1.0,asocial
01JVWABHQK8MST7R4WYM2EN0FD,23,7,9,1.0,0,0,0,1,9,1.0,asocial
01JVWABHQK8MST7R4WYM2EN0FD,23,8,9,1.0,1,0,11,1,9,1.0,asocial
01JVWABHQK8MST7R4WYM2EN0FD,23,9,9,1.0,18,3,151,13,9,1.0,asocial
01JVWABHQK8MST7R4WYM2EN0FD,24,0,9,1.0,0,0,0,1,9,1.0,asocial
01JVWABHQK8MST7R4WYM2EN0FD,24,1,9,1.0,0,0,3,1,9,1.0,asocial
01JVWABHQK8MST7R4WYM2EN0FD,24,2,9,1.0,0,0,0,1,9,1.0,asocial
01JVWABHQK8MST7R4WYM2EN0FD,24,3,9,1.0,0,0,17,4,9,1.0,asocial
01JVWABHQK8MST7R4WYM2EN0FD,24,4,9,1.0,0,0,8,1,9,1.0,asocial
01JVWABHQK8MST7R4WYM2EN0FD,24,5,9,1.0,0,0,8,0,9,1.0,asocial
01JVWABHQK8MST7R4WYM2EN0FD,24,6,9,1.0,0,0,0,1,9,1.0,asocial
01JVWABHQK8MST7R4WYM2EN0FD,24,7,9,1.0,0,0,0,1,9,1.0,asocial
01JVWABHQK8MST7R4WYM2EN0FD,24,8,9,1.0,1,0,12,1,9,1.0,asocial
01JVWABHQK8MST7R4WYM2EN0FD,24,9,9,1.0,19,3,155,13,9,1.0,asocial
01JVWABHQK8MST7R4WYM2EN0FD,25,0,8,1.0,0,0,0,1,9,1.0,asocial
01JVWABHQK8MST7R4WYM2EN0FD,25,1,8,1.0,0,0,3,1,9,1.0,asocial
01JVWABHQK8MST7R4WYM2EN0FD,25,2,8,1.0,0,0,0,1,9,1.0,asocial
01JVWABHQK8MST7R4WYM2EN0FD,25,3,8,1.0,0,0,18,4,9,1.0,asocial
01JVWABHQK8MST7R4WYM2EN0FD,25,4,8,1.0,0,0,8,1,9,1.0,asocial
01JVWABHQK8MST7R4WYM2EN0FD,25,5,8,1.0,0,0,10,0,9,1.0,asocial
01JVWABHQK8MST7R4WYM2EN0FD,25,6,8,1.0,0,0,0,1,9,1.0,asocial
01JVWABHQK8MST7R4WYM2EN0FD,25,7,8,1.0,0,0,0,1,9,1.0,asocial
01JVWABHQK8MST7R4WYM2EN0FD,25,8,8,1.0,1,0,13,1,9,1.0,asocial
01JVWABHQK8MST7R4WYM2EN0FD,25,9,8,1.0,20,3,161,13,9,1.0,asocial
01JVWABHQK8MST7R4WYM2EN0FD,26,0,8,1.0,0,0,0,1,8,1.0,asocial
01JVWABHQK8MST7R4WYM2EN0FD,26,1,8,1.0,0,0,3,1,8,1.0,asocial
01JVWABHQK8MST7R4WYM2EN0FD,26,2,8,1.0,0,0,0,1,8,1.0,asocial
01JVWABHQK8MST7R4WYM2EN0FD,26,3,8,1.0,0,0,19,4,8,1.0,asocial
01JVWABHQK8MST7R4WYM2EN0FD,26,4,8,1.0,0,0,8,1,8,1.0,asocial
01JVWABHQK8MST7R4WYM2EN0FD,26,5,8,1.0,0,0,12,0,8,1.0,asocial
01JVWABHQK8MST7R4WYM2EN0FD,26,6,8,1.0,0,0,0,1,8,1.0,asocial
01JVWABHQK8MST7R4WYM2EN0FD,26,7,8,1.0,0,0,0,1,8,1.0,asocial
01JVWABHQK8MST7R4WYM2EN0FD,26,8,8,1.0,2,0,15,1,8,1.0,asocial
01JVWABHQK8MST7R4WYM2EN0FD,26,9,8,1.0,20,3,164,15,8,1.0,asocial
01JVWABHQK8MST7R4WYM2EN0FD,27,0,8,1.0,0,0,0,1,8,1.0,asocial
01JVWABHQK8MST7R4WYM2EN0FD,27,1,8,1.0,0,0,3,1,8,1.0,asocial
01JVWABHQK8MST7R4WYM2EN0FD,27,2,8,1.0,0,0,0,1,8,1.0,asocial
01JVWABHQK8MST7R4WYM2EN0FD,27,3,8,1.0,0,0,20,4,8,1.0,asocial
01JVWABHQK8MST7R4WYM2EN0FD,27,4,8,1.0,0,0,8,1,8,1.0,asocial
01JVWABHQK8MST7R4WYM2EN0FD,27,5,8,1.0,0,0,15,0,8,1.0,asocial
01JVWABHQK8MST7R4WYM2EN0FD,27,6,8,1.0,0,0,0,1,8,1.0,asocial
01JVWABHQK8MST7R4WYM2EN0FD,27,7,8,1.0,0,0,0,1,8,1.0,asocial
01JVWABHQK8MST7R4WYM2EN0FD,27,8,8,1.0,3,0,17,1,8,1.0,asocial
01JVWABHQK8MST7R4WYM2EN0FD,27,9,8,1.0,20,3,168,15,8,1.0,asocial
01JVWABHQK8MST7R4WYM2EN0FD,28,0,9,1.0,0,0,0,1,8,1.0,asocial
01JVWABHQK8MST7R4WYM2EN0FD,28,1,9,1.0,0,0,3,1,8,1.0,asocial
01JVWABHQK8MST7R4WYM2EN0FD,28,2,9,1.0,0,0,0,1,8,1.0,asocial
01JVWABHQK8MST7R4WYM2EN0FD,28,3,9,1.0,0,0,22,4,8,1.0,asocial
01JVWABHQK8MST7R4WYM2EN0FD,28,4,9,1.0,0,0,8,1,8,1.0,asocial
01JVWABHQK8MST7R4WYM2EN0FD,28,5,9,1.0,0,0,17,1,8,1.0,asocial
01JVWABHQK8MST7R4WYM2EN0FD,28,6,9,1.0,0,0,0,1,8,1.0,asocial
01JVWABHQK8MST7R4WYM2EN0FD,28,7,9,1.0,0,0,0,1,8,1.0,asocial
01JVWABHQK8MST7R4WYM2EN0FD,28,8,9,1.0,4,0,19,1,8,1.0,asocial
01JVWABHQK8MST7R4WYM2EN0FD,28,9,9,1.0,20,3,171,15,8,1.0,asocial
01JVWABHQK8MST7R4WYM2EN0FD,29,0,8,1.0,0,0,0,1,9,1.0,asocial
01JVWABHQK8MST7R4WYM2EN0FD,29,1,8,1.0,0,0,3,1,9,1.0,asocial
01JVWABHQK8MST7R4WYM2EN0FD,29,2,8,1.0,0,0,0,1,9,1.0,asocial
01JVWABHQK8MST7R4WYM2EN0FD,29,3,8,1.0,0,0,23,4,9,1.0,asocial
01JVWABHQK8MST7R4WYM2EN0FD,29,4,8,1.0,0,0,8,1,9,1.0,asocial
01JVWABHQK8MST7R4WYM2EN0FD,29,5,8,1.0,0,0,18,1,9,1.0,asocial
01JVWABHQK8MST7R4WYM2EN0FD,29,6,8,1.0,0,0,0,1,9,1.0,asocial
01JVWABHQK8MST7R4WYM2EN0FD,29,7,8,1.0,0,0,0,1,9,1.0,asocial
01JVWABHQK8MST7R4WYM2EN0FD,29,8,8,1.0,4,0,21,1,9,1.0,asocial
01JVWABHQK8MST7R4WYM2EN0FD,29,9,8,1.0,21,3,176,16,9,1.0,asocial
01JVWABHQK8MST7R4WYM2EN0FD,30,0,8,1.0,0,0,0,1,8,1.0,asocial
01JVWABHQK8MST7R4WYM2EN0FD,30,1,8,1.0,0,0,3,1,8,1.0,asocial
01JVWABHQK8MST7R4WYM2EN0FD,30,2,8,1.0,0,0,0,1,8,1.0,asocial
01JVWABHQK8MST7R4WYM2EN0FD,30,3,8,1.0,0,0,24,4,8,1.0,asocial
01JVWABHQK8MST7R4WYM2EN0FD,30,4,8,1.0,0,0,8,1,8,1.0,asocial
01JVWABHQK8MST7R4WYM2EN0FD,30,5,8,1.0,0,0,19,1,8,1.0,asocial
01JVWABHQK8MST7R4WYM2EN0FD,30,6,8,1.0,0,0,0,1,8,1.0,asocial
01JVWABHQK8MST7R4WYM2EN0FD,30,7,8,1.0,0,0,0,1,8,1.0,asocial
01JVWABHQK8MST7R4WYM2EN0FD,30,8,8,1.0,5,0,25,1,8,1.0,asocial
01JVWABHQK8MST7R4WYM2EN0FD,30,9,8,1.0,21,3,179,17,8,1.0,asocial
01JVWABHQK8MST7R4WYM2EN0FD,31,0,8,1.0,0,0,0,1,8,1.0,asocial
01JVWABHQK8MST7R4WYM2EN0FD,31,1,8,1.0,0,0,3,1,8,1.0,asocial
01JVWABHQK8MST7R4WYM2EN0FD,31,2,8,1.0,0,0,0,1,8,1.0,asocial
01JVWABHQK8MST7R4WYM2EN0FD,31,3,8,1.0,0,0,25,4,8,1.0,asocial
01JVWABHQK8MST7R4WYM2EN0FD,31,4,8,1.0,0,0,8,1,8,1.0,asocial
01JVWABHQK8MST7R4WYM2EN0FD,31,5,8,1.0,0,0,20,1,8,1.0,asocial
01JVWABHQK8MST7R4WYM2EN0FD,31,6,8,1.0,0,0,0,1,8,1.0,asocial
01JVWABHQK8MST7R4WYM2EN0FD,31,7,8,1.0,0,0,0,1,8,1.0,asocial
01JVWABHQK8MST7R4WYM2EN0FD,31,8,8,1.0,6,0,29,2,8,1.0,asocial
01JVWABHQK8MST7R4WYM2EN0FD,31,9,8,1.0,21,3,181,18,8,1.0,asocial
01JVWABHQK8MST7R4WYM2EN0FD,32,0,8,1.0,0,0,0,1,8,1.0,asocial
01JVWABHQK8MST7R4WYM2EN0FD,32,1,8,1.0,0,0,3,1,8,1.0,asocial
01JVWABHQK8MST7R4WYM2EN0FD,32,2,8,1.0,0,0,0,1,8,1.0,asocial
01JVWABHQK8MST7R4WYM2EN0FD,32,3,8,1.0,0,0,25,5,8,1.0,asocial
01JVWABHQK8MST7R4WYM2EN0FD,32,4,8,1.0,0,0,8,1,8,1.0,asocial
01JVWABHQK8MST7R4WYM2EN0FD,32,5,8,1.0,0,0,21,3,8,1.0,asocial
01JVWABHQK8MST7R4WYM2EN0FD,32,6,8,1.0,0,0,0,1,8,1.0,asocial
01JVWABHQK8MST7R4WYM2EN0FD,32,7,8,1.0,0,0,0,1,8,1.0,asocial
01JVWABHQK8MST7R4WYM2EN0FD,32,8,8,1.0,7,0,32,2,8,1.0,asocial
01JVWABHQK8MST7R4WYM2EN0FD,32,9,8,1.0,21,3,183,19,8,1.0,asocial
01JVWABHQK8MST7R4WYM2EN0FD,33,0,8,1.0,0,0,0,1,8,1.0,asocial
01JVWABHQK8MST7R4WYM2EN0FD,33,1,8,1.0,0,0,3,1,8,1.0,asocial
01JVWABHQK8MST7R4WYM2EN0FD,33,2,8,1.0,0,0,0,1,8,1.0,asocial
01JVWABHQK8MST7R4WYM2EN0FD,33,3,8,1.0,0,0,26,5,8,1.0,asocial
01JVWABHQK8MST7R4WYM2EN0FD,33,4,8,1.0,0,0,8,1,8,1.0,asocial
01JVWABHQK8MST7R4WYM2EN0FD,33,5,8,1.0,0,0,21,3,8,1.0,asocial
01JVWABHQK8MST7R4WYM2EN0FD,33,6,8,1.0,0,0,0,1,8,1.0,asocial
01JVWABHQK8MST7R4WYM2EN0FD,33,7,8,1.0,0,0,0,1,8,1.0,asocial
01JVWABHQK8MST7R4WYM2EN0FD,33,8,8,1.0,8,0,36,2,8,1.0,asocial
01JVWABHQK8MST7R4WYM2EN0FD,33,9,8,1.0,21,3,188,19,8,1.0,asocial
01JVWABHQK8MST7R4WYM2EN0FD,34,0,8,1.0,0,0,0,1,8,1.0,asocial
01JVWABHQK8MST7R4WYM2EN0FD,34,1,8,1.0,0,0,3,1,8,1.0,asocial
01JVWABHQK8MST7R4WYM2EN0FD,34,2,8,1.0,0,0,0,1,8,1.0,asocial
01JVWABHQK8MST7R4WYM2EN0FD,34,3,8,1.0,0,0,27,5,8,1.0,asocial
01JVWABHQK8MST7R4WYM2EN0FD,34,4,8,1.0,0,0,8,2,8,1.0,asocial
01JVWABHQK8MST7R4WYM2EN0FD,34,5,8,1.0,0,0,21,3,8,1.0,asocial
01JVWABHQK8MST7R4WYM2EN0FD,34,6,8,1.0,0,0,0,1,8,1.0,asocial
01JVWABHQK8MST7R4WYM2EN0FD,34,7,8,1.0,0,0,0,1,8,1.0,asocial
01JVWABHQK8MST7R4WYM2EN0FD,34,8,8,1.0,9,0,41,2,8,1.0,asocial
01JVWABHQK8MST7R4WYM2EN0FD,34,9,8,1.0,21,3,191,19,8,1.0,asocial
01JVWABHQK8MST7R4WYM2EN0FD,35,0,8,1.0,0,0,0,1,8,1.0,asocial
01JVWABHQK8MST7R4WYM2EN0FD,35,1,8,1.0,0,0,3,1,8,1.0,asocial
01JVWABHQK8MST7R4WYM2EN0FD,35,2,8,1.0,0,0,0,1,8,1.0,asocial
01JVWABHQK8MST7R4WYM2EN0FD,35,3,8,1.0,0,0,28,5,8,1.0,asocial
01JVWABHQK8MST7R4WYM2EN0FD,35,4,8,1.0,0,0,8,2,8,1.0,asocial
01JVWABHQK8MST7R4WYM2EN0FD,35,5,8,1.0,0,0,21,3,8,1.0,asocial
01JVWABHQK8MST7R4WYM2EN0FD,35,6,8,1.0,0,0,0,1,8,1.0,asocial
01JVWABHQK8MST7R4WYM2EN0FD,35,7,8,1.0,0,0,0,1,8,1.0,asocial
01JVWABHQK8MST7R4WYM2EN0FD,35,8,8,1.0,10,0,45,2,8,1.0,asocial
01JVWABHQK8MST7R4WYM2EN0FD,35,9,8,1.0,21,3,196,19,8,1.0,asocial
01JVWABHQK8MST7R4WYM2EN0FD,36,0,8,1.0,0,0,0,1,8,1.0,asocial
01JVWABHQK8MST7R4WYM2EN0FD,36,1,8,1.0,0,0,3,1,8,1.0,asocial
01JVWABHQK8MST7R4WYM2EN0FD,36,2,8,1.0,0,0,0,1,8,1.0,asocial
01JVWABHQK8MST7R4WYM2EN0FD,36,3,8,1.0,0,0,29,5,8,1.0,asocial
01JVWABHQK8MST7R4WYM2EN0FD,36,4,8,1.0,0,0,8,2,8,1.0,asocial
01JVWABHQK8MST7R4WYM2EN0FD,36,5,8,1.0,0,0,21,3,8,1.0,asocial
01JVWABHQK8MST7R4WYM2EN0FD,36,6,8,1.0,0,0,0,1,8,1.0,asocial
01JVWABHQK8MST7R4WYM2EN0FD,36,7,8,1.0,0,0,0,1,8,1.0,asocial
01JVWABHQK8MST7R4WYM2EN0FD,36,8,8,1.0,11,0,49,2,8,1.0,asocial
01JVWABHQK8MST7R4WYM2EN0FD,36,9,8,1.0,21,3,199,21,8,1.0,asocial
01JVWABHQK8MST7R4WYM2EN0FD,37,0,8,1.0,0,0,0,1,8,1.0,asocial
01JVWABHQK8MST7R4WYM2EN0FD,37,1,8,1.0,0,0,3,1,8,1.0,asocial
01JVWABHQK8MST7R4WYM2EN0FD,37,2,8,1.0,0,0,0,1,8,1.0,asocial
01JVWABHQK8MST7R4WYM2EN0FD,37,3,8,1.0,0,0,30,5,8,1.0,asocial
01JVWABHQK8MST7R4WYM2EN0FD,37,4,8,1.0,0,0,8,2,8,1.0,asocial
01JVWABHQK8MST7R4WYM2EN0FD,37,5,8,1.0,0,0,21,3,8,1.0,asocial
01JVWABHQK8MST7R4WYM2EN0FD,37,6,8,1.0,0,0,0,1,8,1.0,asocial
01JVWABHQK8MST7R4WYM2EN0FD,37,7,8,1.0,0,0,0,1,8,1.0,asocial
01JVWABHQK8MST7R4WYM2EN0FD,37,8,8,1.0,12,0,52,3,8,1.0,asocial
01JVWABHQK8MST7R4WYM2EN0FD,37,9,8,1.0,21,3,203,22,8,1.0,asocial
01JVWABHQK8MST7R4WYM2EN0FD,38,0,8,1.0,0,0,0,1,8,1.0,asocial
01JVWABHQK8MST7R4WYM2EN0FD,38,1,8,1.0,0,0,3,1,8,1.0,asocial
01JVWABHQK8MST7R4WYM2EN0FD,38,2,8,1.0,0,0,0,1,8,1.0,asocial
01JVWABHQK8MST7R4WYM2EN0FD,38,3,8,1.0,0,0,31,5,8,1.0,asocial
01JVWABHQK8MST7R4WYM2EN0FD,38,4,8,1.0,0,0,8,2,8,1.0,asocial
01JVWABHQK8MST7R4WYM2EN0FD,38,5,8,1.0,0,0,21,3,8,1.0,asocial
01JVWABHQK8MST7R4WYM2EN0FD,38,6,8,1.0,0,0,0,1,8,1.0,asocial
01JVWABHQK8MST7R4WYM2EN0FD,38,7,8,1.0,0,0,0,1,8,1.0,asocial
01JVWABHQK8MST7R4WYM2EN0FD,38,8,8,1.0,13,0,56,3,8,1.0,asocial
01JVWABHQK8MST7R4WYM2EN0FD,38,9,8,1.0,21,3,208,22,8,1.0,asocial
01JVWABHQK8MST7R4WYM2EN0FD,39,0,8,1.0,0,0,0,1,8,1.0,asocial
01JVWABHQK8MST7R4WYM2EN0FD,39,1,8,1.0,0,0,3,1,8,1.0,asocial
01JVWABHQK8MST7R4WYM2EN0FD,39,2,8,1.0,0,0,0,1,8,1.0,asocial
01JVWABHQK8MST7R4WYM2EN0FD,39,3,8,1.0,0,0,32,5,8,1.0,asocial
01JVWABHQK8MST7R4WYM2EN0FD,39,4,8,1.0,0,0,8,2,8,1.0,asocial
01JVWABHQK8MST7R4WYM2EN0FD,39,5,8,1.0,0,0,21,3,8,1.0,asocial
01JVWABHQK8MST7R4WYM2EN0FD,39,6,8,1.0,0,0,0,1,8,1.0,asocial
01JVWABHQK8MST7R4WYM2EN0FD,39,7,8,1.0,0,0,0,1,8,1.0,asocial
01JVWABHQK8MST7R4WYM2EN0FD,39,8,8,1.0,14,0,61,3,8,1.0,asocial
01JVWABHQK8MST7R4WYM2EN0FD,39,9,8,1.0,21,3,211,23,8,1.0,asocial
01JVWABHQK8MST7R4WYM2EN0FD,40,0,8,0.0,0,0,0,1,8,1.0,asocial
01JVWABHQK8MST7R4WYM2EN0FD,40,1,8,0.0,0,0,3,1,8,1.0,asocial
01JVWABHQK8MST7R4WYM2EN0FD,40,2,8,0.0,0,0,0,1,8,1.0,asocial
01JVWABHQK8MST7R4WYM2EN0FD,40,3,8,0.0,0,0,33,5,8,1.0,asocial
01JVWABHQK8MST7R4WYM2EN0FD,40,4,8,0.0,0,0,8,2,8,1.0,asocial
01JVWABHQK8MST7R4WYM2EN0FD,40,5,8,0.0,0,0,21,3,8,1.0,asocial
01JVWABHQK8MST7R4WYM2EN0FD,40,6,8,0.0,0,0,0,1,8,1.0,asocial
01JVWABHQK8MST7R4WYM2EN0FD,40,7,8,0.0,0,0,0,1,8,1.0,asocial
01JVWABHQK8MST7R4WYM2EN0FD,40,8,8,0.0,15,0,65,4,8,1.0,asocial
01JVWABHQK8MST7R4WYM2EN0FD,40,9,8,0.0,21,3,214,24,8,1.0,asocial
01JVWABHQK8MST7R4WYM2EN0FD,41,0,8,1.0,0,0,0,1,8,0.0,asocial
01JVWABHQK8MST7R4WYM2EN0FD,41,1,8,1.0,0,0,3,1,8,0.0,asocial
01JVWABHQK8MST7R4WYM2EN0FD,41,2,8,1.0,0,0,0,1,8,0.0,asocial
01JVWABHQK8MST7R4WYM2EN0FD,41,3,8,1.0,0,0,34,5,8,0.0,asocial
01JVWABHQK8MST7R4WYM2EN0FD,41,4,8,1.0,0,0,8,2,8,0.0,asocial
01JVWABHQK8MST7R4WYM2EN0FD,41,5,8,1.0,0,0,21,3,8,0.0,asocial
01JVWABHQK8MST7R4WYM2EN0FD,41,6,8,1.0,0,0,0,1,8,0.0,asocial
01JVWABHQK8MST7R4WYM2EN0FD,41,7,8,1.0,0,0,0,1,8,0.0,asocial
01JVWABHQK8MST7R4WYM2EN0FD,41,8,8,1.0,15,1,67,7,8,0.0,asocial
01JVWABHQK8MST7R4WYM2EN0FD,41,9,8,1.0,21,3,217,25,8,0.0,asocial
01JVWABHQK8MST7R4WYM2EN0FD,42,0,8,1.0,0,0,0,1,8,1.0,asocial
01JVWABHQK8MST7R4WYM2EN0FD,42,1,8,1.0,0,0,3,1,8,1.0,asocial
01JVWABHQK8MST7R4WYM2EN0FD,42,2,8,1.0,0,0,0,1,8,1.0,asocial
01JVWABHQK8MST7R4WYM2EN0FD,42,3,8,1.0,0,0,34,6,8,1.0,asocial
01JVWABHQK8MST7R4WYM2EN0FD,42,4,8,1.0,0,0,8,2,8,1.0,asocial
01JVWABHQK8MST7R4WYM2EN0FD,42,5,8,1.0,0,0,22,3,8,1.0,asocial
01JVWABHQK8MST7R4WYM2EN0FD,42,6,8,1.0,0,0,0,1,8,1.0,asocial
01JVWABHQK8MST7R4WYM2EN0FD,42,7,8,1.0,0,0,0,1,8,1.0,asocial
01JVWABHQK8MST7R4WYM2EN0FD,42,8,8,1.0,16,1,70,7,8,1.0,asocial
01JVWABHQK8MST7R4WYM2EN0FD,42,9,8,1.0,21,3,220,26,8,1.0,asocial
01JVWABHQK8MST7R4WYM2EN0FD,43,0,8,1.0,0,0,0,1,8,1.0,asocial
01JVWABHQK8MST7R4WYM2EN0FD,43,1,8,1.0,0,0,4,1,8,1.0,asocial
01JVWABHQK8MST7R4WYM2EN0FD,43,2,8,1.0,0,0,0,1,8,1.0,asocial
01JVWABHQK8MST7R4WYM2EN0FD,43,3,8,1.0,0,0,35,6,8,1.0,asocial
01JVWABHQK8MST7R4WYM2EN0FD,43,4,8,1.0,0,0,8,2,8,1.0,asocial
01JVWABHQK8MST7R4WYM2EN0FD,43,5,8,1.0,0,0,23,3,8,1.0,asocial
01JVWABHQK8MST7R4WYM2EN0FD,43,6,8,1.0,0,0,0,1,8,1.0,asocial
01JVWABHQK8MST7R4WYM2EN0FD,43,7,8,1.0,0,0,0,1,8,1.0,asocial
01JVWABHQK8MST7R4WYM2EN0FD,43,8,8,1.0,17,1,73,7,8,1.0,asocial
01JVWABHQK8MST7R4WYM2EN0FD,43,9,8,1.0,21,3,224,26,8,1.0,asocial
01JVWABHQK8MST7R4WYM2EN0FD,44,0,8,1.0,0,0,0,1,8,1.0,asocial
01JVWABHQK8MST7R4WYM2EN0FD,44,1,8,1.0,0,0,4,1,8,1.0,asocial
01JVWABHQK8MST7R4WYM2EN0FD,44,2,8,1.0,0,0,0,1,8,1.0,asocial
01JVWABHQK8MST7R4WYM2EN0FD,44,3,8,1.0,0,0,36,6,8,1.0,asocial
01JVWABHQK8MST7R4WYM2EN0FD,44,4,8,1.0,0,0,8,2,8,1.0,asocial
01JVWABHQK8MST7R4WYM2EN0FD,44,5,8,1.0,0,0,24,3,8,1.0,asocial
01JVWABHQK8MST7R4WYM2EN0FD,44,6,8,1.0,0,0,0,1,8,1.0,asocial
01JVWABHQK8MST7R4WYM2EN0FD,44,7,8,1.0,0,0,0,1,8,1.0,asocial
01JVWABHQK8MST7R4WYM2EN0FD,44,8,8,1.0,18,1,76,7,8,1.0,asocial
01JVWABHQK8MST7R4WYM2EN0FD,44,9,8,1.0,21,3,229,26,8,1.0,asocial
01JVWABHQK8MST7R4WYM2EN0FD,45,0,8,0.0,0,0,0,1,8,1.0,asocial
01JVWABHQK8MST7R4WYM2EN0FD,45,1,8,0.0,0,0,4,1,8,1.0,asocial
01JVWABHQK8MST7R4WYM2EN0FD,45,2,8,0.0,0,0,1,1,8,1.0,asocial
01JVWABHQK8MST7R4WYM2EN0FD,45,3,8,0.0,0,0,37,6,8,1.0,asocial
01JVWABHQK8MST7R4WYM2EN0FD,45,4,8,0.0,0,0,8,2,8,1.0,asocial
01JVWABHQK8MST7R4WYM2EN0FD,45,5,8,0.0,0,0,25,3,8,1.0,asocial
01JVWABHQK8MST7R4WYM2EN0FD,45,6,8,0.0,0,0,0,1,8,1.0,asocial
01JVWABHQK8MST7R4WYM2EN0FD,45,7,8,0.0,0,0,0,1,8,1.0,asocial
01JVWABHQK8MST7R4WYM2EN0FD,45,8,8,0.0,19,1,79,7,8,1.0,asocial
01JVWABHQK8MST7R4WYM2EN0FD,45,9,8,0.0,21,3,232,27,8,1.0,asocial
01JVWABHQK8MST7R4WYM2EN0FD,46,0,8,1.0,0,0,0,1,8,0.0,asocial
01JVWABHQK8MST7R4WYM2EN0FD,46,1,8,1.0,0,0,4,1,8,0.0,asocial
01JVWABHQK8MST7R4WYM2EN0FD,46,2,8,1.0,0,0,2,1,8,0.0,asocial
01JVWABHQK8MST7R4WYM2EN0FD,46,3,8,1.0,0,0,38,6,8,0.0,asocial
01JVWABHQK8MST7R4WYM2EN0FD,46,4,8,1.0,0,0,8,2,8,0.0,asocial
01JVWABHQK8MST7R4WYM2EN0FD,46,5,8,1.0,0,0,26,3,8,0.0,asocial
01JVWABHQK8MST7R4WYM2EN0FD,46,6,8,1.0,0,0,0,1,8,0.0,asocial
01JVWABHQK8MST7R4WYM2EN0FD,46,7,8,1.0,0,0,0,1,8,0.0,asocial
01JVWABHQK8MST7R4WYM2EN0FD,46,8,8,1.0,19,2,81,8,8,0.0,asocial
01JVWABHQK8MST7R4WYM2EN0FD,46,9,8,1.0,21,3,235,28,8,0.0,asocial
01JVWABHQK8MST7R4WYM2EN0FD,47,0,8,1.0,0,0,0,1,8,1.0,asocial
01JVWABHQK8MST7R4WYM2EN0FD,47,1,8,1.0,0,0,4,1,8,1.0,asocial
01JVWABHQK8MST7R4WYM2EN0FD,47,2,8,1.0,0,0,3,1,8,1.0,asocial
01JVWABHQK8MST7R4WYM2EN0FD,47,3,8,1.0,0,0,39,6,8,1.0,asocial
01JVWABHQK8MST7R4WYM2EN0FD,47,4,8,1.0,0,0,8,2,8,1.0,asocial
01JVWABHQK8MST7R4WYM2EN0FD,47,5,8,1.0,0,0,27,3,8,1.0,asocial
01JVWABHQK8MST7R4WYM2EN0FD,47,6,8,1.0,0,0,0,1,8,1.0,asocial
01JVWABHQK8MST7R4WYM2EN0FD,47,7,8,1.0,0,0,0,1,8,1.0,asocial
01JVWABHQK8MST7R4WYM2EN0FD,47,8,8,1.0,20,2,83,9,8,1.0,asocial
01JVWABHQK8MST7R4WYM2EN0FD,47,9,8,1.0,21,3,238,29,8,1.0,asocial
01JVWABHQK8MST7R4WYM2EN0FD,48,0,9,1.0,0,0,0,1,8,1.0,asocial
01JVWABHQK8MST7R4WYM2EN0FD,48,1,9,1.0,0,0,4,1,8,1.0,asocial
01JVWABHQK8MST7R4WYM2EN0FD,48,2,9,1.0,0,0,3,1,8,1.0,asocial
01JVWABHQK8MST7R4WYM2EN0FD,48,3,9,1.0,0,0,40,6,8,1.0,asocial
01JVWABHQK8MST7R4WYM2EN0FD,48,4,9,1.0,0,0,8,2,8,1.0,asocial
01JVWABHQK8MST7R4WYM2EN0FD,48,5,9,1.0,0,0,29,3,8,1.0,asocial
01JVWABHQK8MST7R4WYM2EN0FD,48,6,9,1.0,0,0,1,1,8,1.0,asocial
01JVWABHQK8MST7R4WYM2EN0FD,48,7,9,1.0,0,0,0,1,8,1.0,asocial
01JVWABHQK8MST7R4WYM2EN0FD,48,8,9,1.0,21,2,86,9,8,1.0,asocial
01JVWABHQK8MST7R4WYM2EN0FD,48,9,9,1.0,21,3,241,29,8,1.0,asocial
01JVWABHQK8MST7R4WYM2EN0FD,49,0,9,1.0,0,0,1,1,9,1.0,asocial
01JVWABHQK8MST7R4WYM2EN0FD,49,1,9,1.0,0,0,4,1,9,1.0,asocial
01JVWABHQK8MST7R4WYM2EN0FD,49,2,9,1.0,0,0,3,1,9,1.0,asocial
01JVWABHQK8MST7R4WYM2EN0FD,49,3,9,1.0,0,0,41,6,9,1.0,asocial
01JVWABHQK8MST7R4WYM2EN0FD,49,4,9,1.0,0,0,8,2,9,1.0,asocial
01JVWABHQK8MST7R4WYM2EN0FD,49,5,9,1.0,0,0,31,3,9,1.0,asocial
01JVWABHQK8MST7R4WYM2EN0FD,49,6,9,1.0,0,0,1,1,9,1.0,asocial
01JVWABHQK8MST7R4WYM2EN0FD,49,7,9,1.0,0,0,0,1,9,1.0,asocial
01JVWABHQK8MST7R4WYM2EN0FD,49,8,9,1.0,21,2,87,10,9,1.0,asocial
01JVWABHQK8MST7R4WYM2EN0FD,49,9,9,1.0,22,3,245,29,9,1.0,asocial
01JVWABHQK8MST7R4WYM2EN0FD,50,0,9,1.0,0,0,1,1,9,1.0,asocial
01JVWABHQK8MST7R4WYM2EN0FD,50,1,9,1.0,0,0,5,1,9,1.0,asocial
01JVWABHQK8MST7R4WYM2EN0FD,50,2,9,1.0,0,0,3,1,9,1.0,asocial
01JVWABHQK8MST7R4WYM2EN0FD,50,3,9,1.0,0,0,43,6,9,1.0,asocial
01JVWABHQK8MST7R4WYM2EN0FD,50,4,9,1.0,0,0,8,2,9,1.0,asocial
01JVWABHQK8MST7R4WYM2EN0FD,50,5,9,1.0,0,0,32,4,9,1.0,asocial
01JVWABHQK8MST7R4WYM2EN0FD,50,6,9,1.0,0,0,1,1,9,1.0,asocial
01JVWABHQK8MST7R4WYM2EN0FD,50,7,9,1.0,0,0,0,1,9,1.0,asocial
01JVWABHQK8MST7R4WYM2EN0FD,50,8,9,1.0,21,2,87,10,9,1.0,asocial
01JVWABHQK8MST7R4WYM2EN0FD,50,9,9,1.0,23,3,249,30,9,1.0,asocial
01JVWABHQK8MST7R4WYM2EN0FD,51,0,8,1.0,0,0,1,1,9,1.0,asocial
01JVWABHQK8MST7R4WYM2EN0FD,51,1,8,1.0,0,0,6,1,9,1.0,asocial
01JVWABHQK8MST7R4WYM2EN0FD,51,2,8,1.0,0,0,3,1,9,1.0,asocial
01JVWABHQK8MST7R4WYM2EN0FD,51,3,8,1.0,0,0,45,6,9,1.0,asocial
01JVWABHQK8MST7R4WYM2EN0FD,51,4,8,1.0,0,0,8,2,9,1.0,asocial
01JVWABHQK8MST7R4WYM2EN0FD,51,5,8,1.0,0,0,32,4,9,1.0,asocial
01JVWABHQK8MST7R4WYM2EN0FD,51,6,8,1.0,0,0,1,1,9,1.0,asocial
01JVWABHQK8MST7R4WYM2EN0FD,51,7,8,1.0,0,0,0,1,9,1.0,asocial
01JVWABHQK8MST7R4WYM2EN0FD,51,8,8,1.0,21,2,89,10,9,1.0,asocial
01JVWABHQK8MST7R4WYM2EN0FD,51,9,8,1.0,24,3,254,30,9,1.0,asocial
01JVWABK1CXR73ZPK044QZJAQG,1,0,8,1.0,0,0,0,0,-1,,asocial
01JVWABK1CXR73ZPK044QZJAQG,1,1,8,1.0,0,0,0,0,-1,,asocial
01JVWABK1CXR73ZPK044QZJAQG,1,2,8,1.0,0,0,0,0,-1,,asocial
01JVWABK1CXR73ZPK044QZJAQG,1,3,8,1.0,0,0,0,0,-1,,asocial
01JVWABK1CXR73ZPK044QZJAQG,1,4,8,1.0,0,0,0,0,-1,,asocial
01JVWABK1CXR73ZPK044QZJAQG,1,5,8,1.0,0,0,0,0,-1,,asocial
01JVWABK1CXR73ZPK044QZJAQG,1,6,8,1.0,0,0,0,0,-1,,asocial
01JVWABK1CXR73ZPK044QZJAQG,1,7,8,1.0,0,0,0,0,-1,,asocial
01JVWABK1CXR73ZPK044QZJAQG,1,8,8,1.0,0,0,0,0,-1,,asocial
01JVWABK1CXR73ZPK044QZJAQG,1,9,8,1.0,0,0,0,0,-1,,asocial
01JVWABK1CXR73ZPK044QZJAQG,2,0,8,1.0,0,0,0,1,8,1.0,asocial
01JVWABK1CXR73ZPK044QZJAQG,2,1,8,1.0,0,0,1,0,8,1.0,asocial
01JVWABK1CXR73ZPK044QZJAQG,2,2,8,1.0,0,0,0,1,8,1.0,asocial
01JVWABK1CXR73ZPK044QZJAQG,2,3,8,1.0,0,0,1,0,8,1.0,asocial
01JVWABK1CXR73ZPK044QZJAQG,2,4,8,1.0,0,0,1,0,8,1.0,asocial
01JVWABK1CXR73ZPK044QZJAQG,2,5,8,1.0,0,0,0,0,8,1.0,asocial
01JVWABK1CXR73ZPK044QZJAQG,2,6,8,1.0,0,0,0,1,8,1.0,asocial
01JVWABK1CXR73ZPK044QZJAQG,2,7,8,1.0,0,0,0,1,8,1.0,asocial
01JVWABK1CXR73ZPK044QZJAQG,2,8,8,1.0,1,0,1,0,8,1.0,asocial
01JVWABK1CXR73ZPK044QZJAQG,2,9,8,1.0,0,0,1,0,8,1.0,asocial
01JVWABK1CXR73ZPK044QZJAQG,3,0,9,1.0,0,0,0,1,8,1.0,asocial
01JVWABK1CXR73ZPK044QZJAQG,3,1,9,1.0,0,0,2,0,8,1.0,asocial
01JVWABK1CXR73ZPK044QZJAQG,3,2,9,1.0,0,0,0,1,8,1.0,asocial
01JVWABK1CXR73ZPK044QZJAQG,3,3,9,1.0,0,0,3,0,8,1.0,asocial
01JVWABK1CXR73ZPK044QZJAQG,3,4,9,1.0,0,0,2,0,8,1.0,asocial
01JVWABK1CXR73ZPK044QZJAQG,3,5,9,1.0,0,0,1,0,8,1.0,asocial
01JVWABK1CXR73ZPK044QZJAQG,3,6,9,1.0,0,0,0,1,8,1.0,asocial
01JVWABK1CXR73ZPK044QZJAQG,3,7,9,1.0,0,0,0,1,8,1.0,asocial
01JVWABK1CXR73ZPK044QZJAQG,3,8,9,1.0,2,0,3,0,8,1.0,asocial
01JVWABK1CXR73ZPK044QZJAQG,3,9,9,1.0,0,0,4,0,8,1.0,asocial
01JVWABK1CXR73ZPK044QZJAQG,4,0,9,1.0,0,0,0,1,9,1.0,asocial
01JVWABK1CXR73ZPK044QZJAQG,4,1,9,1.0,0,0,2,0,9,1.0,asocial
01JVWABK1CXR73ZPK044QZJAQG,4,2,9,1.0,0,0,0,1,9,1.0,asocial
01JVWABK1CXR73ZPK044QZJAQG,4,3,9,1.0,0,0,4,0,9,1.0,asocial
01JVWABK1CXR73ZPK044QZJAQG,4,4,9,1.0,0,0,3,0,9,1.0,asocial
01JVWABK1CXR73ZPK044QZJAQG,4,5,9,1.0,0,0,1,0,9,1.0,asocial
01JVWABK1CXR73ZPK044QZJAQG,4,6,9,1.0,0,0,0,1,9,1.0,asocial
01JVWABK1CXR73ZPK044QZJAQG,4,7,9,1.0,0,0,0,1,9,1.0,asocial
01JVWABK1CXR73ZPK044QZJAQG,4,8,9,1.0,2,0,3,0,9,1.0,asocial
01JVWABK1CXR73ZPK044QZJAQG,4,9,9,1.0,1,0,12,0,9,1.0,asocial
01JVWABK1CXR73ZPK044QZJAQG,5,0,9,0.0,0,0,0,1,9,1.0,asocial
01JVWABK1CXR73ZPK044QZJAQG,5,1,9,0.0,0,0,2,0,9,1.0,asocial
01JVWABK1CXR73ZPK044QZJAQG,5,2,9,0.0,0,0,0,1,9,1.0,asocial
01JVWABK1CXR73ZPK044QZJAQG,5,3,9,0.0,0,0,4,0,9,1.0,asocial
01JVWABK1CXR73ZPK044QZJAQG,5,4,9,0.0,0,0,3,0,9,1.0,asocial
01JVWABK1CXR73ZPK044QZJAQG,5,5,9,0.0,0,0,1,0,9,1.0,asocial
01JVWABK1CXR73ZPK044QZJAQG,5,6,9,0.0,0,0,0,1,9,1.0,asocial
01JVWABK1CXR73ZPK044QZJAQG,5,7,9,0.0,0,0,0,1,9,1.0,asocial
01JVWABK1CXR73ZPK044QZJAQG,5,8,9,0.0,2,0,3,0,9,1.0,asocial
01JVWABK1CXR73ZPK044QZJAQG,5,9,9,0.0,2,0,22,0,9,1.0,asocial
01JVWABK1CXR73ZPK044QZJAQG,6,0,9,1.0,0,0,0,1,9,0.0,asocial
01JVWABK1CXR73ZPK044QZJAQG,6,1,9,1.0,0,0,2,0,9,0.0,asocial
01JVWABK1CXR73ZPK044QZJAQG,6,2,9,1.0,0,0,0,1,9,0.0,asocial
01JVWABK1CXR73ZPK044QZJAQG,6,3,9,1.0,0,0,5,0,9,0.0,asocial
01JVWABK1CXR73ZPK044QZJAQG,6,4,9,1.0,0,0,3,0,9,0.0,asocial
01JVWABK1CXR73ZPK044QZJAQG,6,5,9,1.0,0,0,1,0,9,0.0,asocial
01JVWABK1CXR73ZPK044QZJAQG,6,6,9,1.0,0,0,0,1,9,0.0,asocial
01JVWABK1CXR73ZPK044QZJAQG,6,7,9,1.0,0,0,0,1,9,0.0,asocial
01JVWABK1CXR73ZPK044QZJAQG,6,8,9,1.0,2,0,3,0,9,0.0,asocial
01JVWABK1CXR73ZPK044QZJAQG,6,9,9,1.0,2,1,30,1,9,0.0,asocial
01JVWABK1CXR73ZPK044QZJAQG,7,0,9,1.0,0,0,0,1,9,1.0,asocial
01JVWABK1CXR73ZPK044QZJAQG,7,1,9,1.0,0,0,2,0,9,1.0,asocial
01JVWABK1CXR73ZPK044QZJAQG,7,2,9,1.0,0,0,0,1,9,1.0,asocial
01JVWABK1CXR73ZPK044QZJAQG,7,3,9,1.0,0,0,7,0,9,1.0,asocial
01JVWABK1CXR73ZPK044QZJAQG,7,4,9,1.0,0,0,3,0,9,1.0,asocial
01JVWABK1CXR73ZPK044QZJAQG,7,5,9,1.0,0,0,1,0,9,1.0,asocial
01JVWABK1CXR73ZPK044QZJAQG,7,6,9,1.0,0,0,0,1,9,1.0,asocial
01JVWABK1CXR73ZPK044QZJAQG,7,7,9,1.0,0,0,0,1,9,1.0,asocial
01JVWABK1CXR73ZPK044QZJAQG,7,8,9,1.0,2,0,3,0,9,1.0,asocial
01JVWABK1CXR73ZPK044QZJAQG,7,9,9,1.0,3,1,38,1,9,1.0,asocial
01JVWABK1CXR73ZPK044QZJAQG,8,0,9,1.0,0,0,0,1,9,1.0,asocial
01JVWABK1CXR73ZPK044QZJAQG,8,1,9,1.0,0,0,2,0,9,1.0,asocial
01JVWABK1CXR73ZPK044QZJAQG,8,2,9,1.0,0,0,0,1,9,1.0,asocial
01JVWABK1CXR73ZPK044QZJAQG,8,3,9,1.0,0,0,8,1,9,1.0,asocial
01JVWABK1CXR73ZPK044QZJAQG,8,4,9,1.0,0,0,3,0,9,1.0,asocial
01JVWABK1CXR73ZPK044QZJAQG,8,5,9,1.0,0,0,1,0,9,1.0,asocial
01JVWABK1CXR73ZPK044QZJAQG,8,6,9,1.0,0,0,0,1,9,1.0,asocial
01JVWABK1CXR73ZPK044QZJAQG,8,7,9,1.0,0,0,0,1,9,1.0,asocial
01JVWABK1CXR73ZPK044QZJAQG,8,8,9,1.0,2,0,3,0,9,1.0,asocial
01JVWABK1CXR73ZPK044QZJAQG,8,9,9,1.0,4,1,45,2,9,1.0,asocial
01JVWABK1CXR73ZPK044QZJAQG,9,0,9,1.0,0,0,0,1,9,1.0,asocial
01JVWABK1CXR73ZPK044QZJAQG,9,1,9,1.0,0,0,2,0,9,1.0,asocial
01JVWABK1CXR73ZPK044QZJAQG,9,2,9,1.0,0,0,0,1,9,1.0,asocial
01JVWABK1CXR73ZPK044QZJAQG,9,3,9,1.0,0,0,9,1,9,1.0,asocial
01JVWABK1CXR73ZPK044QZJAQG,9,4,9,1.0,0,0,3,0,9,1.0,asocial
01JVWABK1CXR73ZPK044QZJAQG,9,5,9,1.0,0,0,1,0,9,1.0,asocial
01JVWABK1CXR73ZPK044QZJAQG,9,6,9,1.0,0,0,0,1,9,1.0,asocial
01JVWABK1CXR73ZPK044QZJAQG,9,7,9,1.0,0,0,0,1,9,1.0,asocial
01JVWABK1CXR73ZPK044QZJAQG,9,8,9,1.0,2,0,3,0,9,1.0,asocial
01JVWABK1CXR73ZPK044QZJAQG,9,9,9,1.0,5,1,54,2,9,1.0,asocial
01JVWABK1CXR73ZPK044QZJAQG,10,0,9,1.0,0,0,0,1,9,1.0,asocial
01JVWABK1CXR73ZPK044QZJAQG,10,1,9,1.0,0,0,2,0,9,1.0,asocial
01JVWABK1CXR73ZPK044QZJAQG,10,2,9,1.0,0,0,0,1,9,1.0,asocial
01JVWABK1CXR73ZPK044QZJAQG,10,3,9,1.0,0,0,10,1,9,1.0,asocial
01JVWABK1CXR73ZPK044QZJAQG,10,4,9,1.0,0,0,3,0,9,1.0,asocial
01JVWABK1CXR73ZPK044QZJAQG,10,5,9,1.0,0,0,1,0,9,1.0,asocial
01JVWABK1CXR73ZPK044QZJAQG,10,6,9,1.0,0,0,0,1,9,1.0,asocial
01JVWABK1CXR73ZPK044QZJAQG,10,7,9,1.0,0,0,0,1,9,1.0,asocial
01JVWABK1CXR73ZPK044QZJAQG,10,8,9,1.0,2,0,4,0,9,1.0,asocial
01JVWABK1CXR73ZPK044QZJAQG,10,9,9,1.0,6,1,62,2,9,1.0,asocial
01JVWABK1CXR73ZPK044QZJAQG,11,0,9,1.0,0,0,0,1,9,1.0,asocial
01JVWABK1CXR73ZPK044QZJAQG,11,1,9,1.0,0,0,2,0,9,1.0,asocial
01JVWABK1CXR73ZPK044QZJAQG,11,2,9,1.0,0,0,0,1,9,1.0,asocial
01JVWABK1CXR73ZPK044QZJAQG,11,3,9,1.0,0,0,10,2,9,1.0,asocial
01JVWABK1CXR73ZPK044QZJAQG,11,4,9,1.0,0,0,4,0,9,1.0,asocial
01JVWABK1CXR73ZPK044QZJAQG,11,5,9,1.0,0,0,1,0,9,1.0,asocial
01JVWABK1CXR73ZPK044QZJAQG,11,6,9,1.0,0,0,0,1,9,1.0,asocial
01JVWABK1CXR73ZPK044QZJAQG,11,7,9,1.0,0,0,0,1,9,1.0,asocial
01JVWABK1CXR73ZPK044QZJAQG,11,8,9,1.0,2,0,4,0,9,1.0,asocial
01JVWABK1CXR73ZPK044QZJAQG,11,9,9,1.0,7,1,70,2,9,1.0,asocial
01JVWABK1CXR73ZPK044QZJAQG,12,0,9,1.0,0,0,0,1,9,1.0,asocial
01JVWABK1CXR73ZPK044QZJAQG,12,1,9,1.0,0,0,2,0,9,1.0,asocial
01JVWABK1CXR73ZPK044QZJAQG,12,2,9,1.0,0,0,0,1,9,1.0,asocial
01JVWABK1CXR73ZPK044QZJAQG,12,3,9,1.0,0,0,10,2,9,1.0,asocial
01JVWABK1CXR73ZPK044QZJAQG,12,4,9,1.0,0,0,5,0,9,1.0,asocial
01JVWABK1CXR73ZPK044QZJAQG,12,5,9,1.0,0,0,1,0,9,1.0,asocial
01JVWABK1CXR73ZPK044QZJAQG,12,6,9,1.0,0,0,0,1,9,1.0,asocial
01JVWABK1CXR73ZPK044QZJAQG,12,7,9,1.0,0,0,0,1,9,1.0,asocial
01JVWABK1CXR73ZPK044QZJAQG,12,8,9,1.0,2,0,4,0,9,1.0,asocial
01JVWABK1CXR73ZPK044QZJAQG,12,9,9,1.0,8,1,79,2,9,1.0,asocial
01JVWABK1CXR73ZPK044QZJAQG,13,0,9,0.0,0,0,0,1,9,1.0,asocial
01JVWABK1CXR73ZPK044QZJAQG,13,1,9,0.0,0,0,2,0,9,1.0,asocial
01JVWABK1CXR73ZPK044QZJAQG,13,2,9,0.0,0,0,0,1,9,1.0,asocial
01JVWABK1CXR73ZPK044QZJAQG,13,3,9,0.0,0,0,10,3,9,1.0,asocial
01JVWABK1CXR73ZPK044QZJAQG,13,4,9,0.0,0,0,6,0,9,1.0,asocial
01JVWABK1CXR73ZPK044QZJAQG,13,5,9,0.0,0,0,1,0,9,1.0,asocial
01JVWABK1CXR73ZPK044QZJAQG,13,6,9,0.0,0,0,0,1,9,1.0,asocial
01JVWABK1CXR73ZPK044QZJAQG,13,7,9,0.0,0,0,0,1,9,1.0,asocial
01JVWABK1CXR73ZPK044QZJAQG,13,8,9,0.0,2,0,4,0,9,1.0,asocial
01JVWABK1CXR73ZPK044QZJAQG,13,9,9,0.0,9,1,87,2,9,1.0,asocial
01JVWABK1CXR73ZPK044QZJAQG,14,0,9,1.0,0,0,0,1,9,0.0,asocial
01JVWABK1CXR73ZPK044QZJAQG,14,1,9,1.0,0,0,2,0,9,0.0,asocial
01JVWABK1CXR73ZPK044QZJAQG,14,2,9,1.0,0,0,0,1,9,0.0,asocial
01JVWABK1CXR73ZPK044QZJAQG,14,3,9,1.0,0,0,10,3,9,0.0,asocial
01JVWABK1CXR73ZPK044QZJAQG,14,4,9,1.0,0,0,7,0,9,0.0,asocial
01JVWABK1CXR73ZPK044QZJAQG,14,5,9,1.0,0,0,1,0,9,0.0,asocial
01JVWABK1CXR73ZPK044QZJAQG,14,6,9,1.0,0,0,0,1,9,0.0,asocial
01JVWABK1CXR73ZPK044QZJAQG,14,7,9,1.0,0,0,0,1,9,0.0,asocial
01JVWABK1CXR73ZPK044QZJAQG,14,8,9,1.0,2,0,4,0,9,0.0,asocial
01JVWABK1CXR73ZPK044QZJAQG,14,9,9,1.0,9,2,94,4,9,0.0,asocial
01JVWABK1CXR73ZPK044QZJAQG,15,0,9,1.0,0,0,0,1,9,1.0,asocial
01JVWABK1CXR73ZPK044QZJAQG,15,1,9,1.0,0,0,2,0,9,1.0,asocial
01JVWABK1CXR73ZPK044QZJAQG,15,2,9,1.0,0,0,0,1,9,1.0,asocial
01JVWABK1CXR73ZPK044QZJAQG,15,3,9,1.0,0,0,11,3,9,1.0,asocial
01JVWABK1CXR73ZPK044QZJAQG,15,4,9,1.0,0,0,8,1,9,1.0,asocial
01JVWABK1CXR73ZPK044QZJAQG,15,5,9,1.0,0,0,1,0,9,1.0,asocial
01JVWABK1CXR73ZPK044QZJAQG,15,6,9,1.0,0,0,0,1,9,1.0,asocial
01JVWABK1CXR73ZPK044QZJAQG,15,7,9,1.0,0,0,0,1,9,1.0,asocial
01JVWABK1CXR73ZPK044QZJAQG,15,8,9,1.0,2,0,4,0,9,1.0,asocial
01JVWABK1CXR73ZPK044QZJAQG,15,9,9,1.0,10,2,101,4,9,1.0,asocial
01JVWABK1CXR73ZPK044QZJAQG,16,0,9,1.0,0,0,0,1,9,1.0,asocial
01JVWABK1CXR73ZPK044QZJAQG,16,1,9,1.0,0,0,2,0,9,1.0,asocial
01JVWABK1CXR73ZPK044QZJAQG,16,2,9,1.0,0,0,0,1,9,1.0,asocial
01JVWABK1CXR73ZPK044QZJAQG,16,3,9,1.0,0,0,12,3,9,1.0,asocial
01JVWABK1CXR73ZPK044QZJAQG,16,4,9,1.0,0,0,8,1,9,1.0,asocial
01JVWABK1CXR73ZPK044QZJAQG,16,5,9,1.0,0,0,1,0,9,1.0,asocial
01JVWABK1CXR73ZPK044QZJAQG,16,6,9,1.0,0,0,0,1,9,1.0,asocial
01JVWABK1CXR73ZPK044QZJAQG,16,7,9,1.0,0,0,0,1,9,1.0,asocial
01JVWABK1CXR73ZPK044QZJAQG,16,8,9,1.0,2,0,5,0,9,1.0,asocial
01JVWABK1CXR73ZPK044QZJAQG,16,9,9,1.0,11,2,108,5,9,1.0,asocial
01JVWABK1CXR73ZPK044QZJAQG,17,0,9,1.0,0,0,0,1,9,1.0,asocial
01JVWABK1CXR73ZPK044QZJAQG,17,1,9,1.0,0,0,2,0,9,1.0,asocial
01JVWABK1CXR73ZPK044QZJAQG,17,2,9,1.0,0,0,0,1,9,1.0,asocial
01JVWABK1CXR73ZPK044QZJAQG,17,3,9,1.0,0,0,13,3,9,1.0,asocial
01JVWABK1CXR73ZPK044QZJAQG,17,4,9,1.0,0,0,8,1,9,1.0,asocial
01JVWABK1CXR73ZPK044QZJAQG,17,5,9,1.0,0,0,1,0,9,1.0,asocial
01JVWABK1CXR73ZPK044QZJAQG,17,6,9,1.0,0,0,0,1,9,1.0,asocial
01JVWABK1CXR73ZPK044QZJAQG,17,7,9,1.0,0,0,0,1,9,1.0,asocial
01JVWABK1CXR73ZPK044QZJAQG,17,8,9,1.0,2,0,7,0,9,1.0,asocial
01JVWABK1CXR73ZPK044QZJAQG,17,9,9,1.0,12,2,114,6,9,1.0,asocial
01JVWABK1CXR73ZPK044QZJAQG,18,0,9,0.0,0,0,0,1,9,1.0,asocial
01JVWABK1CXR73ZPK044QZJAQG,18,1,9,0.0,0,0,2,0,9,1.0,asocial
01JVWABK1CXR73ZPK044QZJAQG,18,2,9,0.0,0,0,0,1,9,1.0,asocial
01JVWABK1CXR73ZPK044QZJAQG,18,3,9,0.0,0,0,13,3,9,1.0,asocial
01JVWABK1CXR73ZPK044QZJAQG,18,4,9,0.0,0,0,8,1,9,1.0,asocial
01JVWABK1CXR73ZPK044QZJAQG,18,5,9,0.0,0,0,1,0,9,1.0,asocial
01JVWABK1CXR73ZPK044QZJAQG,18,6,9,0.0,0,0,0,1,9,1.0,asocial
01JVWABK1CXR73ZPK044QZJAQG,18,7,9,0.0,0,0,0,1,9,1.0,asocial
01JVWABK1CXR73ZPK044QZJAQG,18,8,9,0.0,2,0,8,1,9,1.0,asocial
01JVWABK1CXR73ZPK044QZJAQG,18,9,9,0.0,13,2,121,7,9,1.0,asocial
01JVWABK1CXR73ZPK044QZJAQG,19,0,9,0.0,0,0,0,1,9,0.0,asocial
01JVWABK1CXR73ZPK044QZJAQG,19,1,9,0.0,0,0,3,0,9,0.0,asocial
01JVWABK1CXR73ZPK044QZJAQG,19,2,9,0.0,0,0,0,1,9,0.0,asocial
01JVWABK1CXR73ZPK044QZJAQG,19,3,9,0.0,0,0,14,3,9,0.0,asocial
01JVWABK1CXR73ZPK044QZJAQG,19,4,9,0.0,0,0,8,1,9,0.0,asocial
01JVWABK1CXR73ZPK044QZJAQG,19,5,9,0.0,0,0,1,0,9,0.0,asocial
01JVWABK1CXR73ZPK044QZJAQG,19,6,9,0.0,0,0,0,1,9,0.0,asocial
01JVWABK1CXR73ZPK044QZJAQG,19,7,9,0.0,0,0,0,1,9,0.0,asocial
01JVWABK1CXR73ZPK044QZJAQG,19,8,9,0.0,2,0,8,1,9,0.0,asocial
01JVWABK1CXR73ZPK044QZJAQG,19,9,9,0.0,13,3,126,10,9,0.0,asocial
01JVWABK1CXR73ZPK044QZJAQG,20,0,8,1.0,0,0,0,1,9,0.0,asocial
01JVWABK1CXR73ZPK044QZJAQG,20,1,8,1.0,0,0,3,1,9,0.0,asocial
01JVWABK1CXR73ZPK044QZJAQG,20,2,8,1.0,0,0,0,1,9,0.0,asocial
01JVWABK1CXR73ZPK044QZJAQG,20,3,8,1.0,0,0,14,3,9,0.0,asocial
01JVWABK1CXR73ZPK044QZJAQG,20,4,8,1.0,0,0,8,1,9,0.0,asocial
01JVWABK1CXR73ZPK044QZJAQG,20,5,8,1.0,0,0,1,0,9,0.0,asocial
01JVWABK1CXR73ZPK044QZJAQG,20,6,8,1.0,0,0,0,1,9,0.0,asocial
01JVWABK1CXR73ZPK044QZJAQG,20,7,8,1.0,0,0,0,1,9,0.0,asocial
01JVWABK1CXR73ZPK044QZJAQG,20,8,8,1.0,2,0,8,1,9,0.0,asocial
01JVWABK1CXR73ZPK044QZJAQG,20,9,8,1.0,13,4,134,11,9,0.0,asocial
01JVWABK1CXR73ZPK044QZJAQG,21,0,8,1.0,0,0,0,1,8,1.0,asocial
01JVWABK1CXR73ZPK044QZJAQG,21,1,8,1.0,0,0,3,1,8,1.0,asocial
01JVWABK1CXR73ZPK044QZJAQG,21,2,8,1.0,0,0,0,1,8,1.0,asocial
01JVWABK1CXR73ZPK044QZJAQG,21,3,8,1.0,0,0,15,3,8,1.0,asocial
01JVWABK1CXR73ZPK044QZJAQG,21,4,8,1.0,0,0,8,1,8,1.0,asocial
01JVWABK1CXR73ZPK044QZJAQG,21,5,8,1.0,0,0,2,0,8,1.0,asocial
01JVWABK1CXR73ZPK044QZJAQG,21,6,8,1.0,0,0,0,1,8,1.0,asocial
01JVWABK1CXR73ZPK044QZJAQG,21,7,8,1.0,0,0,0,1,8,1.0,asocial
01JVWABK1CXR73ZPK044QZJAQG,21,8,8,1.0,3,0,9,1,8,1.0,asocial
01JVWABK1CXR73ZPK044QZJAQG,21,9,8,1.0,13,4,140,12,8,1.0,asocial
01JVWABK1CXR73ZPK044QZJAQG,22,0,8,1.0,0,0,0,1,8,1.0,asocial
01JVWABK1CXR73ZPK044QZJAQG,22,1,8,1.0,0,0,3,1,8,1.0,asocial
01JVWABK1CXR73ZPK044QZJAQG,22,2,8,1.0,0,0,0,1,8,1.0,asocial
01JVWABK1CXR73ZPK044QZJAQG,22,3,8,1.0,0,0,16,3,8,1.0,asocial
01JVWABK1CXR73ZPK044QZJAQG,22,4,8,1.0,0,0,8,1,8,1.0,asocial
01JVWABK1CXR73ZPK044QZJAQG,22,5,8,1.0,0,0,4,0,8,1.0,asocial
01JVWABK1CXR73ZPK044QZJAQG,22,6,8,1.0,0,0,0,1,8,1.0,asocial
01JVWABK1CXR73ZPK044QZJAQG,22,7,8,1.0,0,0,0,1,8,1.0,asocial
01JVWABK1CXR73ZPK044QZJAQG,22,8,8,1.0,4,0,10,1,8,1.0,asocial
01JVWABK1CXR73ZPK044QZJAQG,22,9,8,1.0,13,4,145,13,8,1.0,asocial
01JVWABK1CXR73ZPK044QZJAQG,23,0,8,1.0,0,0,0,1,8,1.0,asocial
01JVWABK1CXR73ZPK044QZJAQG,23,1,8,1.0,0,0,3,1,8,1.0,asocial
01JVWABK1CXR73ZPK044QZJAQG,23,2,8,1.0,0,0,0,1,8,1.0,asocial
01JVWABK1CXR73ZPK044QZJAQG,23,3,8,1.0,0,0,16,3,8,1.0,asocial
01JVWABK1CXR73ZPK044QZJAQG,23,4,8,1.0,0,0,8,1,8,1.0,asocial
01JVWABK1CXR73ZPK044QZJAQG,23,5,8,1.0,0,0,6,0,8,1.0,asocial
01JVWABK1CXR73ZPK044QZJAQG,23,6,8,1.0,0,0,0,1,8,1.0,asocial
01JVWABK1CXR73ZPK044QZJAQG,23,7,8,1.0,0,0,0,1,8,1.0,asocial
01JVWABK1CXR73ZPK044QZJAQG,23,8,8,1.0,5,0,11,1,8,1.0,asocial
01JVWABK1CXR73ZPK044QZJAQG,23,9,8,1.0,13,4,151,13,8,1.0,asocial
01JVWABK1CXR73ZPK044QZJAQG,24,0,8,1.0,0,0,0,1,8,1.0,asocial
01JVWABK1CXR73ZPK044QZJAQG,24,1,8,1.0,0,0,3,1,8,1.0,asocial
01JVWABK1CXR73ZPK044QZJAQG,24,2,8,1.0,0,0,0,1,8,1.0,asocial
01JVWABK1CXR73ZPK044QZJAQG,24,3,8,1.0,0,0,17,4,8,1.0,asocial
01JVWABK1CXR73ZPK044QZJAQG,24,4,8,1.0,0,0,8,1,8,1.0,asocial
01JVWABK1CXR73ZPK044QZJAQG,24,5,8,1.0,0,0,8,0,8,1.0,asocial
01JVWABK1CXR73ZPK044QZJAQG,24,6,8,1.0,0,0,0,1,8,1.0,asocial
01JVWABK1CXR73ZPK044QZJAQG,24,7,8,1.0,0,0,0,1,8,1.0,asocial
01JVWABK1CXR73ZPK044QZJAQG,24,8,8,1.0,6,0,12,1,8,1.0,asocial
01JVWABK1CXR73ZPK044QZJAQG,24,9,8,1.0,13,4,155,13,8,1.0,asocial
01JVWABK1CXR73ZPK044QZJAQG,25,0,8,1.0,0,0,0,1,8,1.0,asocial
01JVWABK1CXR73ZPK044QZJAQG,25,1,8,1.0,0,0,3,1,8,1.0,asocial
01JVWABK1CXR73ZPK044QZJAQG,25,2,8,1.0,0,0,0,1,8,1.0,asocial
01JVWABK1CXR73ZPK044QZJAQG,25,3,8,1.0,0,0,18,4,8,1.0,asocial
01JVWABK1CXR73ZPK044QZJAQG,25,4,8,1.0,0,0,8,1,8,1.0,asocial
01JVWABK1CXR73ZPK044QZJAQG,25,5,8,1.0,0,0,10,0,8,1.0,asocial
01JVWABK1CXR73ZPK044QZJAQG,25,6,8,1.0,0,0,0,1,8,1.0,asocial
01JVWABK1CXR73ZPK044QZJAQG,25,7,8,1.0,0,0,0,1,8,1.0,asocial
01JVWABK1CXR73ZPK044QZJAQG,25,8,8,1.0,7,0,13,1,8,1.0,asocial
01JVWABK1CXR73ZPK044QZJAQG,25,9,8,1.0,13,4,161,13,8,1.0,asocial
01JVWABK1CXR73ZPK044QZJAQG,26,0,8,1.0,0,0,0,1,8,1.0,asocial
01JVWABK1CXR73ZPK044QZJAQG,26,1,8,1.0,0,0,3,1,8,1.0,asocial
01JVWABK1CXR73ZPK044QZJAQG,26,2,8,1.0,0,0,0,1,8,1.0,asocial
01JVWABK1CXR73ZPK044QZJAQG,26,3,8,1.0,0,0,19,4,8,1.0,asocial
01JVWABK1CXR73ZPK044QZJAQG,26,4,8,1.0,0,0,8,1,8,1.0,asocial
01JVWABK1CXR73ZPK044QZJAQG,26,5,8,1.0,0,0,12,0,8,1.0,asocial
01JVWABK1CXR73ZPK044QZJAQG,26,6,8,1.0,0,0,0,1,8,1.0,asocial
01JVWABK1CXR73ZPK044QZJAQG,26,7,8,1.0,0,0,0,1,8,1.0,asocial
01JVWABK1CXR73ZPK044QZJAQG,26,8,8,1.0,8,0,15,1,8,1.0,asocial
01JVWABK1CXR73ZPK044QZJAQG,26,9,8,1.0,13,4,164,15,8,1.0,asocial
01JVWABK1CXR73ZPK044QZJAQG,27,0,8,1.0,0,0,0,1,8,1.0,asocial
01JVWABK1CXR73ZPK044QZJAQG,27,1,8,1.0,0,0,3,1,8,1.0,asocial
01JVWABK1CXR73ZPK044QZJAQG,27,2,8,1.0,0,0,0,1,8,1.0,asocial
01JVWABK1CXR73ZPK044QZJAQG,27,3,8,1.0,0,0,20,4,8,1.0,asocial
01JVWABK1CXR73ZPK044QZJAQG,27,4,8,1.0,0,0,8,1,8,1.0,asocial
01JVWABK1CXR73ZPK044QZJAQG,27,5,8,1.0,0,0,15,0,8,1.0,asocial
01JVWABK1CXR73ZPK044QZJAQG,27,6,8,1.0,0,0,0,1,8,1.0,asocial
01JVWABK1CXR73ZPK044QZJAQG,27,7,8,1.0,0,0,0,1,8,1.0,asocial
01JVWABK1CXR73ZPK044QZJAQG,27,8,8,1.0,9,0,17,1,8,1.0,asocial
01JVWABK1CXR73ZPK044QZJAQG,27,9,8,1.0,13,4,168,15,8,1.0,asocial
01JVWABK1CXR73ZPK044QZJAQG,28,0,8,1.0,0,0,0,1,8,1.0,asocial
01JVWABK1CXR73ZPK044QZJAQG,28,1,8,1.0,0,0,3,1,8,1.0,asocial
01JVWABK1CXR73ZPK044QZJAQG,28,2,8,1.0,0,0,0,1,8,1.0,asocial
01JVWABK1CXR73ZPK044QZJAQG,28,3,8,1.0,0,0,22,4,8,1.0,asocial
01JVWABK1CXR73ZPK044QZJAQG,28,4,8,1.0,0,0,8,1,8,1.0,asocial
01JVWABK1CXR73ZPK044QZJAQG,28,5,8,1.0,0,0,17,1,8,1.0,asocial
01JVWABK1CXR73ZPK044QZJAQG,28,6,8,1.0,0,0,0,1,8,1.0,asocial
01JVWABK1CXR73ZPK044QZJAQG,28,7,8,1.0,0,0,0,1,8,1.0,asocial
01JVWABK1CXR73ZPK044QZJAQG,28,8,8,1.0,10,0,19,1,8,1.0,asocial
01JVWABK1CXR73ZPK044QZJAQG,28,9,8,1.0,13,4,171,15,8,1.0,asocial
01JVWABK1CXR73ZPK044QZJAQG,29,0,8,1.0,0,0,0,1,8,1.0,asocial
01JVWABK1CXR73ZPK044QZJAQG,29,1,8,1.0,0,0,3,1,8,1.0,asocial
01JVWABK1CXR73ZPK044QZJAQG,29,2,8,1.0,0,0,0,1,8,1.0,asocial
01JVWABK1CXR73ZPK044QZJAQG,29,3,8,1.0,0,0,23,4,8,1.0,asocial
01JVWABK1CXR73ZPK044QZJAQG,29,4,8,1.0,0,0,8,1,8,1.0,asocial
01JVWABK1CXR73ZPK044QZJAQG,29,5,8,1.0,0,0,18,1,8,1.0,asocial
01JVWABK1CXR73ZPK044QZJAQG,29,6,8,1.0,0,0,0,1,8,1.0,asocial
01JVWABK1CXR73ZPK044QZJAQG,29,7,8,1.0,0,0,0,1,8,1.0,asocial
01JVWABK1CXR73ZPK044QZJAQG,29,8,8,1.0,11,0,21,1,8,1.0,asocial
01JVWABK1CXR73ZPK044QZJAQG,29,9,8,1.0,13,4,176,16,8,1.0,asocial
01JVWABK1CXR73ZPK044QZJAQG,30,0,8,1.0,0,0,0,1,8,1.0,asocial
01JVWABK1CXR73ZPK044QZJAQG,30,1,8,1.0,0,0,3,1,8,1.0,asocial
01JVWABK1CXR73ZPK044QZJAQG,30,2,8,1.0,0,0,0,1,8,1.0,asocial
01JVWABK1CXR73ZPK044QZJAQG,30,3,8,1.0,0,0,24,4,8,1.0,asocial
01JVWABK1CXR73ZPK044QZJAQG,30,4,8,1.0,0,0,8,1,8,1.0,asocial
01JVWABK1CXR73ZPK044QZJAQG,30,5,8,1.0,0,0,19,1,8,1.0,asocial
01JVWABK1CXR73ZPK044QZJAQG,30,6,8,1.0,0,0,0,1,8,1.0,asocial
01JVWABK1CXR73ZPK044QZJAQG,30,7,8,1.0,0,0,0,1,8,1.0,asocial
01JVWABK1CXR73ZPK044QZJAQG,30,8,8,1.0,12,0,25,1,8,1.0,asocial
01JVWABK1CXR73ZPK044QZJAQG,30,9,8,1.0,13,4,179,17,8,1.0,asocial
01JVWABK1CXR73ZPK044QZJAQG,31,0,8,1.0,0,0,0,1,8,1.0,asocial
01JVWABK1CXR73ZPK044QZJAQG,31,1,8,1.0,0,0,3,1,8,1.0,asocial
01JVWABK1CXR73ZPK044QZJAQG,31,2,8,1.0,0,0,0,1,8,1.0,asocial
01JVWABK1CXR73ZPK044QZJAQG,31,3,8,1.0,0,0,25,4,8,1.0,asocial
01JVWABK1CXR73ZPK044QZJAQG,31,4,8,1.0,0,0,8,1,8,1.0,asocial
01JVWABK1CXR73ZPK044QZJAQG,31,5,8,1.0,0,0,20,1,8,1.0,asocial
01JVWABK1CXR73ZPK044QZJAQG,31,6,8,1.0,0,0,0,1,8,1.0,asocial
01JVWABK1CXR73ZPK044QZJAQG,31,7,8,1.0,0,0,0,1,8,1.0,asocial
01JVWABK1CXR73ZPK044QZJAQG,31,8,8,1.0,13,0,29,2,8,1.0,asocial
01JVWABK1CXR73ZPK044QZJAQG,31,9,8,1.0,13,4,181,18,8,1.0,asocial
01JVWABK1CXR73ZPK044QZJAQG,32,0,8,1.0,0,0,0,1,8,1.0,asocial
01JVWABK1CXR73ZPK044QZJAQG,32,1,8,1.0,0,0,3,1,8,1.0,asocial
01JVWABK1CXR73ZPK044QZJAQG,32,2,8,1.0,0,0,0,1,8,1.0,asocial
01JVWABK1CXR73ZPK044QZJAQG,32,3,8,1.0,0,0,25,5,8,1.0,asocial
01JVWABK1CXR73ZPK044QZJAQG,32,4,8,1.0,0,0,8,1,8,1.0,asocial
01JVWABK1CXR73ZPK044QZJAQG,32,5,8,1.0,0,0,21,3,8,1.0,asocial
01JVWABK1CXR73ZPK044QZJAQG,32,6,8,1.0,0,0,0,1,8,1.0,asocial
01JVWABK1CXR73ZPK044QZJAQG,32,7,8,1.0,0,0,0,1,8,1.0,asocial
01JVWABK1CXR73ZPK044QZJAQG,32,8,8,1.0,14,0,32,2,8,1.0,asocial
01JVWABK1CXR73ZPK044QZJAQG,32,9,8,1.0,13,4,183,19,8,1.0,asocial
01JVWABK1CXR73ZPK044QZJAQG,33,0,8,1.0,0,0,0,1,8,1.0,asocial
01JVWABK1CXR73ZPK044QZJAQG,33,1,8,1.0,0,0,3,1,8,1.0,asocial
01JVWABK1CXR73ZPK044QZJAQG,33,2,8,1.0,0,0,0,1,8,1.0,asocial
01JVWABK1CXR73ZPK044QZJAQG,33,3,8,1.0,0,0,26,5,8,1.0,asocial
01JVWABK1CXR73ZPK044QZJAQG,33,4,8,1.0,0,0,8,1,8,1.0,asocial
01JVWABK1CXR73ZPK044QZJAQG,33,5,8,1.0,0,0,21,3,8,1.0,asocial
01JVWABK1CXR73ZPK044QZJAQG,33,6,8,1.0,0,0,0,1,8,1.0,asocial
01JVWABK1CXR73ZPK044QZJAQG,33,7,8,1.0,0,0,0,1,8,1.0,asocial
01JVWABK1CXR73ZPK044QZJAQG,33,8,8,1.0,15,0,36,2,8,1.0,asocial
01JVWABK1CXR73ZPK044QZJAQG,33,9,8,1.0,13,4,188,19,8,1.0,asocial
01JVWABK1CXR73ZPK044QZJAQG,34,0,8,1.0,0,0,0,1,8,1.0,asocial
01JVWABK1CXR73ZPK044QZJAQG,34,1,8,1.0,0,0,3,1,8,1.0,asocial
01JVWABK1CXR73ZPK044QZJAQG,34,2,8,1.0,0,0,0,1,8,1.0,asocial
01JVWABK1CXR73ZPK044QZJAQG,34,3,8,1.0,0,0,27,5,8,1.0,asocial
01JVWABK1CXR73ZPK044QZJAQG,34,4,8,1.0,0,0,8,2,8,1.0,asocial
01JVWABK1CXR73ZPK044QZJAQG,34,5,8,1.0,0,0,21,3,8,1.0,asocial
01JVWABK1CXR73ZPK044QZJAQG,34,6,8,1.0,0,0,0,1,8,1.0,asocial
01JVWABK1CXR73ZPK044QZJAQG,34,7,8,1.0,0,0,0,1,8,1.0,asocial
01JVWABK1CXR73ZPK044QZJAQG,34,8,8,1.0,16,0,41,2,8,1.0,asocial
01JVWABK1CXR73ZPK044QZJAQG,34,9,8,1.0,13,4,191,19,8,1.0,asocial
01JVWABK1CXR73ZPK044QZJAQG,35,0,8,1.0,0,0,0,1,8,1.0,asocial
01JVWABK1CXR73ZPK044QZJAQG,35,1,8,1.0,0,0,3,1,8,1.0,asocial
01JVWABK1CXR73ZPK044QZJAQG,35,2,8,1.0,0,0,0,1,8,1.0,asocial
01JVWABK1CXR73ZPK044QZJAQG,35,3,8,1.0,0,0,28,5,8,1.0,asocial
01JVWABK1CXR73ZPK044QZJAQG,35,4,8,1.0,0,0,8,2,8,1.0,asocial
01JVWABK1CXR73ZPK044QZJAQG,35,5,8,1.0,0,0,21,3,8,1.0,asocial
01JVWABK1CXR73ZPK044QZJAQG,35,6,8,1.0,0,0,0,1,8,1.0,asocial
01JVWABK1CXR73ZPK044QZJAQG,35,7,8,1.0,0,0,0,1,8,1.0,asocial
01JVWABK1CXR73ZPK044QZJAQG,35,8,8,1.0,17,0,45,2,8,1.0,asocial
01JVWABK1CXR73ZPK044QZJAQG,35,9,8,1.0,13,4,196,19,8,1.0,asocial
01JVWABK1CXR73ZPK044QZJAQG,36,0,8,1.0,0,0,0,1,8,1.0,asocial
01JVWABK1CXR73ZPK044QZJAQG,36,1,8,1.0,0,0,3,1,8,1.0,asocial
01JVWABK1CXR73ZPK044QZJAQG,36,2,8,1.0,0,0,0,1,8,1.0,asocial
01JVWABK1CXR73ZPK044QZJAQG,36,3,8,1.0,0,0,29,5,8,1.0,asocial
01JVWABK1CXR73ZPK044QZJAQG,36,4,8,1.0,0,0,8,2,8,1.0,asocial
01JVWABK1CXR73ZPK044QZJAQG,36,5,8,1.0,0,0,21,3,8,1.0,asocial
01JVWABK1CXR73ZPK044QZJAQG,36,6,8,1.0,0,0,0,1,8,1.0,asocial
01JVWABK1CXR73ZPK044QZJAQG,36,7,8,1.0,0,0,0,1,8,1.0,asocial
01JVWABK1CXR73ZPK044QZJAQG,36,8,8,1.0,18,0,49,2,8,1.0,asocial
01JVWABK1CXR73ZPK044QZJAQG,36,9,8,1.0,13,4,199,21,8,1.0,asocial
01JVWABK1CXR73ZPK044QZJAQG,37,0,8,1.0,0,0,0,1,8,1.0,asocial
01JVWABK1CXR73ZPK044QZJAQG,37,1,8,1.0,0,0,3,1,8,1.0,asocial
01JVWABK1CXR73ZPK044QZJAQG,37,2,8,1.0,0,0,0,1,8,1.0,asocial
01JVWABK1CXR73ZPK044QZJAQG,37,3,8,1.0,0,0,30,5,8,1.0,asocial
01JVWABK1CXR73ZPK044QZJAQG,37,4,8,1.0,0,0,8,2,8,1.0,asocial
01JVWABK1CXR73ZPK044QZJAQG,37,5,8,1.0,0,0,21,3,8,1.0,asocial
01JVWABK1CXR73ZPK044QZJAQG,37,6,8,1.0,0,0,0,1,8,1.0,asocial
01JVWABK1CXR73ZPK044QZJAQG,37,7,8,1.0,0,0,0,1,8,1.0,asocial
01JVWABK1CXR73ZPK044QZJAQG,37,8,8,1.0,19,0,52,3,8,1.0,asocial
01JVWABK1CXR73ZPK044QZJAQG,37,9,8,1.0,13,4,203,22,8,1.0,asocial
01JVWABK1CXR73ZPK044QZJAQG,38,0,8,1.0,0,0,0,1,8,1.0,asocial
01JVWABK1CXR73ZPK044QZJAQG,38,1,8,1.0,0,0,3,1,8,1.0,asocial
01JVWABK1CXR73ZPK044QZJAQG,38,2,8,1.0,0,0,0,1,8,1.0,asocial
01JVWABK1CXR73ZPK044QZJAQG,38,3,8,1.0,0,0,31,5,8,1.0,asocial
01JVWABK1CXR73ZPK044QZJAQG,38,4,8,1.0,0,0,8,2,8,1.0,asocial
01JVWABK1CXR73ZPK044QZJAQG,38,5,8,1.0,0,0,21,3,8,1.0,asocial
01JVWABK1CXR73ZPK044QZJAQG,38,6,8,1.0,0,0,0,1,8,1.0,asocial
01JVWABK1CXR73ZPK044QZJAQG,38,7,8,1.0,0,0,0,1,8,1.0,asocial
01JVWABK1CXR73ZPK044QZJAQG,38,8,8,1.0,20,0,56,3,8,1.0,asocial
01JVWABK1CXR73ZPK044QZJAQG,38,9,8,1.0,13,4,208,22,8,1.0,asocial
01JVWABK1CXR73ZPK044QZJAQG,39,0,8,0.0,0,0,0,1,8,1.0,asocial
01JVWABK1CXR73ZPK044QZJAQG,39,1,8,0.0,0,0,3,1,8,1.0,asocial
01JVWABK1CXR73ZPK044QZJAQG,39,2,8,0.0,0,0,0,1,8,1.0,asocial
01JVWABK1CXR73ZPK044QZJAQG,39,3,8,0.0,0,0,32,5,8,1.0,asocial
01JVWABK1CXR73ZPK044QZJAQG,39,4,8,0.0,0,0,8,2,8,1.0,asocial
01JVWABK1CXR73ZPK044QZJAQG,39,5,8,0.0,0,0,21,3,8,1.0,asocial
01JVWABK1CXR73ZPK044QZJAQG,39,6,8,0.0,0,0,0,1,8,1.0,asocial
01JVWABK1CXR73ZPK044QZJAQG,39,7,8,0.0,0,0,0,1,8,1.0,asocial
01JVWABK1CXR73ZPK044QZJAQG,39,8,8,0.0,21,0,61,3,8,1.0,asocial
01JVWABK1CXR73ZPK044QZJAQG,39,9,8,0.0,13,4,211,23,8,1.0,asocial
01JVWABK1CXR73ZPK044QZJAQG,40,0,8,1.0,0,0,0,1,8,0.0,asocial
01JVWABK1CXR73ZPK044QZJAQG,40,1,8,1.0,0,0,3,1,8,0.0,asocial
01JVWABK1CXR73ZPK044QZJAQG,40,2,8,1.0,0,0,0,1,8,0.0,asocial
01JVWABK1CXR73ZPK044QZJAQG,40,3,8,1.0,0,0,33,5,8,0.0,asocial
01JVWABK1CXR73ZPK044QZJAQG,40,4,8,1.0,0,0,8,2,8,0.0,asocial
01JVWABK1CXR73ZPK044QZJAQG,40,5,8,1.0,0,0,21,3,8,0.0,asocial
01JVWABK1CXR73ZPK044QZJAQG,40,6,8,1.0,0,0,0,1,8,0.0,asocial
01JVWABK1CXR73ZPK044QZJAQG,40,7,8,1.0,0,0,0,1,8,0.0,asocial
01JVWABK1CXR73ZPK044QZJAQG,40,8,8,1.0,21,1,65,4,8,0.0,asocial
01JVWABK1CXR73ZPK044QZJAQG,40,9,8,1.0,13,4,214,24,8,0.0,asocial
01JVWABK1CXR73ZPK044QZJAQG,41,0,8,1.0,0,0,0,1,8,1.0,asocial
01JVWABK1CXR73ZPK044QZJAQG,41,1,8,1.0,0,0,3,1,8,1.0,asocial
01JVWABK1CXR73ZPK044QZJAQG,41,2,8,1.0,0,0,0,1,8,1.0,asocial
01JVWABK1CXR73ZPK044QZJAQG,41,3,8,1.0,0,0,34,5,8,1.0,asocial
01JVWABK1CXR73ZPK044QZJAQG,41,4,8,1.0,0,0,8,2,8,1.0,asocial
01JVWABK1CXR73ZPK044QZJAQG,41,5,8,1.0,0,0,21,3,8,1.0,asocial
01JVWABK1CXR73ZPK044QZJAQG,41,6,8,1.0,0,0,0,1,8,1.0,asocial
01JVWABK1CXR73ZPK044QZJAQG,41,7,8,1.0,0,0,0,1,8,1.0,asocial
01JVWABK1CXR73ZPK044QZJAQG,41,8,8,1.0,22,1,67,7,8,1.0,asocial
01JVWABK1CXR73ZPK044QZJAQG,41,9,8,1.0,13,4,217,25,8,1.0,asocial
01JVWABK1CXR73ZPK044QZJAQG,42,0,8,1.0,0,0,0,1,8,1.0,asocial
01JVWABK1CXR73ZPK044QZJAQG,42,1,8,1.0,0,0,3,1,8,1.0,asocial
01JVWABK1CXR73ZPK044QZJAQG,42,2,8,1.0,0,0,0,1,8,1.0,asocial
01JVWABK1CXR73ZPK044QZJAQG,42,3,8,1.0,0,0,34,6,8,1.0,asocial
01JVWABK1CXR73ZPK044QZJAQG,42,4,8,1.0,0,0,8,2,8,1.0,asocial
01JVWABK1CXR73ZPK044QZJAQG,42,5,8,1.0,0,0,22,3,8,1.0,asocial
01JVWABK1CXR73ZPK044QZJAQG,42,6,8,1.0,0,0,0,1,8,1.0,asocial
01JVWABK1CXR73ZPK044QZJAQG,42,7,8,1.0,0,0,0,1,8,1.0,asocial
01JVWABK1CXR73ZPK044QZJAQG,42,8,8,1.0,23,1,70,7,8,1.0,asocial
01JVWABK1CXR73ZPK044QZJAQG,42,9,8,1.0,13,4,220,26,8,1.0,asocial
01JVWABK1CXR73ZPK044QZJAQG,43,0,8,1.0,0,0,0,1,8,1.0,asocial
01JVWABK1CXR73ZPK044QZJAQG,43,1,8,1.0,0,0,4,1,8,1.0,asocial
01JVWABK1CXR73ZPK044QZJAQG,43,2,8,1.0,0,0,0,1,8,1.0,asocial
01JVWABK1CXR73ZPK044QZJAQG,43,3,8,1.0,0,0,35,6,8,1.0,asocial
01JVWABK1CXR73ZPK044QZJAQG,43,4,8,1.0,0,0,8,2,8,1.0,asocial
01JVWABK1CXR73ZPK044QZJAQG,43,5,8,1.0,0,0,23,3,8,1.0,asocial
01JVWABK1CXR73ZPK044QZJAQG,43,6,8,1.0,0,0,0,1,8,1.0,asocial
01JVWABK1CXR73ZPK044QZJAQG,43,7,8,1.0,0,0,0,1,8,1.0,asocial
01JVWABK1CXR73ZPK044QZJAQG,43,8,8,1.0,24,1,73,7,8,1.0,asocial
01JVWABK1CXR73ZPK044QZJAQG,43,9,8,1.0,13,4,224,26,8,1.0,asocial
01JVWABK1CXR73ZPK044QZJAQG,44,0,8,1.0,0,0,0,1,8,1.0,asocial
01JVWABK1CXR73ZPK044QZJAQG,44,1,8,1.0,0,0,4,1,8,1.0,asocial
01JVWABK1CXR73ZPK044QZJAQG,44,2,8,1.0,0,0,0,1,8,1.0,asocial
01JVWABK1CXR73ZPK044QZJAQG,44,3,8,1.0,0,0,36,6,8,1.0,asocial
01JVWABK1CXR73ZPK044QZJAQG,44,4,8,1.0,0,0,8,2,8,1.0,asocial
01JVWABK1CXR73ZPK044QZJAQG,44,5,8,1.0,0,0,24,3,8,1.0,asocial
01JVWABK1CXR73ZPK044QZJAQG,44,6,8,1.0,0,0,0,1,8,1.0,asocial
01JVWABK1CXR73ZPK044QZJAQG,44,7,8,1.0,0,0,0,1,8,1.0,asocial
01JVWABK1CXR73ZPK044QZJAQG,44,8,8,1.0,25,1,76,7,8,1.0,asocial
01JVWABK1CXR73ZPK044QZJAQG,44,9,8,1.0,13,4,229,26,8,1.0,asocial
01JVWABK1CXR73ZPK044QZJAQG,45,0,8,1.0,0,0,0,1,8,1.0,asocial
01JVWABK1CXR73ZPK044QZJAQG,45,1,8,1.0,0,0,4,1,8,1.0,asocial
01JVWABK1CXR73ZPK044QZJAQG,45,2,8,1.0,0,0,1,1,8,1.0,asocial
01JVWABK1CXR73ZPK044QZJAQG,45,3,8,1.0,0,0,37,6,8,1.0,asocial
01JVWABK1CXR73ZPK044QZJAQG,45,4,8,1.0,0,0,8,2,8,1.0,asocial
01JVWABK1CXR73ZPK044QZJAQG,45,5,8,1.0,0,0,25,3,8,1.0,asocial
01JVWABK1CXR73ZPK044QZJAQG,45,6,8,1.0,0,0,0,1,8,1.0,asocial
01JVWABK1CXR73ZPK044QZJAQG,45,7,8,1.0,0,0,0,1,8,1.0,asocial
01JVWABK1CXR73ZPK044QZJAQG,45,8,8,1.0,26,1,79,7,8,1.0,asocial
01JVWABK1CXR73ZPK044QZJAQG,45,9,8,1.0,13,4,232,27,8,1.0,asocial
01JVWABK1CXR73ZPK044QZJAQG,46,0,8,1.0,0,0,0,1,8,1.0,asocial
01JVWABK1CXR73ZPK044QZJAQG,46,1,8,1.0,0,0,4,1,8,1.0,asocial
01JVWABK1CXR73ZPK044QZJAQG,46,2,8,1.0,0,0,2,1,8,1.0,asocial
01JVWABK1CXR73ZPK044QZJAQG,46,3,8,1.0,0,0,38,6,8,1.0,asocial
01JVWABK1CXR73ZPK044QZJAQG,46,4,8,1.0,0,0,8,2,8,1.0,asocial
01JVWABK1CXR73ZPK044QZJAQG,46,5,8,1.0,0,0,26,3,8,1.0,asocial
01JVWABK1CXR73ZPK044QZJAQG,46,6,8,1.0,0,0,0,1,8,1.0,asocial
01JVWABK1CXR73ZPK044QZJAQG,46,7,8,1.0,0,0,0,1,8,1.0,asocial
01JVWABK1CXR73ZPK044QZJAQG,46,8,8,1.0,27,1,81,8,8,1.0,asocial
01JVWABK1CXR73ZPK044QZJAQG,46,9,8,1.0,13,4,235,28,8,1.0,asocial
01JVWABK1CXR73ZPK044QZJAQG,47,0,8,1.0,0,0,0,1,8,1.0,asocial
01JVWABK1CXR73ZPK044QZJAQG,47,1,8,1.0,0,0,4,1,8,1.0,asocial
01JVWABK1CXR73ZPK044QZJAQG,47,2,8,1.0,0,0,3,1,8,1.0,asocial
01JVWABK1CXR73ZPK044QZJAQG,47,3,8,1.0,0,0,39,6,8,1.0,asocial
01JVWABK1CXR73ZPK044QZJAQG,47,4,8,1.0,0,0,8,2,8,1.0,asocial
01JVWABK1CXR73ZPK044QZJAQG,47,5,8,1.0,0,0,27,3,8,1.0,asocial
01JVWABK1CXR73ZPK044QZJAQG,47,6,8,1.0,0,0,0,1,8,1.0,asocial
01JVWABK1CXR73ZPK044QZJAQG,47,7,8,1.0,0,0,0,1,8,1.0,asocial
01JVWABK1CXR73ZPK044QZJAQG,47,8,8,1.0,28,1,83,9,8,1.0,asocial
01JVWABK1CXR73ZPK044QZJAQG,47,9,8,1.0,13,4,238,29,8,1.0,asocial
01JVWABK1CXR73ZPK044QZJAQG,48,0,8,0.0,0,0,0,1,8,1.0,asocial
01JVWABK1CXR73ZPK044QZJAQG,48,1,8,0.0,0,0,4,1,8,1.0,asocial
01JVWABK1CXR73ZPK044QZJAQG,48,2,8,0.0,0,0,3,1,8,1.0,asocial
01JVWABK1CXR73ZPK044QZJAQG,48,3,8,0.0,0,0,40,6,8,1.0,asocial
01JVWABK1CXR73ZPK044QZJAQG,48,4,8,0.0,0,0,8,2,8,1.0,asocial
01JVWABK1CXR73ZPK044QZJAQG,48,5,8,0.0,0,0,29,3,8,1.0,asocial
01JVWABK1CXR73ZPK044QZJAQG,48,6,8,0.0,0,0,1,1,8,1.0,asocial
01JVWABK1CXR73ZPK044QZJAQG,48,7,8,0.0,0,0,0,1,8,1.0,asocial
01JVWABK1CXR73ZPK044QZJAQG,48,8,8,0.0,29,1,86,9,8,1.0,asocial
01JVWABK1CXR73ZPK044QZJAQG,48,9,8,0.0,13,4,241,29,8,1.0,asocial
01JVWABK1CXR73ZPK044QZJAQG,49,0,5,0.0,0,0,1,1,8,0.0,asocial
01JVWABK1CXR73ZPK044QZJAQG,49,1,5,0.0,0,0,4,1,8,0.0,asocial
01JVWABK1CXR73ZPK044QZJAQG,49,2,5,0.0,0,0,3,1,8,0.0,asocial
01JVWABK1CXR73ZPK044QZJAQG,49,3,5,0.0,0,0,41,6,8,0.0,asocial
01JVWABK1CXR73ZPK044QZJAQG,49,4,5,0.0,0,0,8,2,8,0.0,asocial
01JVWABK1CXR73ZPK044QZJAQG,49,5,5,0.0,0,0,31,3,8,0.0,asocial
01JVWABK1CXR73ZPK044QZJAQG,49,6,5,0.0,0,0,1,1,8,0.0,asocial
01JVWABK1CXR73ZPK044QZJAQG,49,7,5,0.0,0,0,0,1,8,0.0,asocial
01JVWABK1CXR73ZPK044QZJAQG,49,8,5,0.0,29,2,87,10,8,0.0,asocial
01JVWABK1CXR73ZPK044QZJAQG,49,9,5,0.0,13,4,245,29,8,0.0,asocial
01JVWABK1CXR73ZPK044QZJAQG,50,0,8,1.0,0,0,1,1,5,0.0,asocial
01JVWABK1CXR73ZPK044QZJAQG,50,1,8,1.0,0,0,5,1,5,0.0,asocial
01JVWABK1CXR73ZPK044QZJAQG,50,2,8,1.0,0,0,3,1,5,0.0,asocial
01JVWABK1CXR73ZPK044QZJAQG,50,3,8,1.0,0,0,43,6,5,0.0,asocial
01JVWABK1CXR73ZPK044QZJAQG,50,4,8,1.0,0,0,8,2,5,0.0,asocial
01JVWABK1CXR73ZPK044QZJAQG,50,5,8,1.0,0,1,32,4,5,0.0,asocial
01JVWABK1CXR73ZPK044QZJAQG,50,6,8,1.0,0,0,1,1,5,0.0,asocial
01JVWABK1CXR73ZPK044QZJAQG,50,7,8,1.0,0,0,0,1,5,0.0,asocial
01JVWABK1CXR73ZPK044QZJAQG,50,8,8,1.0,29,2,87,10,5,0.0,asocial
01JVWABK1CXR73ZPK044QZJAQG,50,9,8,1.0,13,4,249,30,5,0.0,asocial
01JVWABK1CXR73ZPK044QZJAQG,51,0,8,0.0,0,0,1,1,8,1.0,asocial
01JVWABK1CXR73ZPK044QZJAQG,51,1,8,0.0,0,0,6,1,8,1.0,asocial
01JVWABK1CXR73ZPK044QZJAQG,51,2,8,0.0,0,0,3,1,8,1.0,asocial
01JVWABK1CXR73ZPK044QZJAQG,51,3,8,0.0,0,0,45,6,8,1.0,asocial
01JVWABK1CXR73ZPK044QZJAQG,51,4,8,0.0,0,0,8,2,8,1.0,asocial
01JVWABK1CXR73ZPK044QZJAQG,51,5,8,0.0,0,1,32,4,8,1.0,asocial
01JVWABK1CXR73ZPK044QZJAQG,51,6,8,0.0,0,0,1,1,8,1.0,asocial
01JVWABK1CXR73ZPK044QZJAQG,51,7,8,0.0,0,0,0,1,8,1.0,asocial
01JVWABK1CXR73ZPK044QZJAQG,51,8,8,0.0,30,2,89,10,8,1.0,asocial
01JVWABK1CXR73ZPK044QZJAQG,51,9,8,0.0,13,4,254,30,8,1.0,asocial
01JVWAD35AX1AZFNQV7TBYGCN2,1,0,3,1.0,0,0,0,0,-1,,asocial
01JVWAD35AX1AZFNQV7TBYGCN2,1,1,3,1.0,0,0,0,0,-1,,asocial
01JVWAD35AX1AZFNQV7TBYGCN2,1,2,3,1.0,0,0,0,0,-1,,asocial
01JVWAD35AX1AZFNQV7TBYGCN2,1,3,3,1.0,0,0,0,0,-1,,asocial
01JVWAD35AX1AZFNQV7TBYGCN2,1,4,3,1.0,0,0,0,0,-1,,asocial
01JVWAD35AX1AZFNQV7TBYGCN2,1,5,3,1.0,0,0,0,0,-1,,asocial
01JVWAD35AX1AZFNQV7TBYGCN2,1,6,3,1.0,0,0,0,0,-1,,asocial
01JVWAD35AX1AZFNQV7TBYGCN2,1,7,3,1.0,0,0,0,0,-1,,asocial
01JVWAD35AX1AZFNQV7TBYGCN2,1,8,3,1.0,0,0,0,0,-1,,asocial
01JVWAD35AX1AZFNQV7TBYGCN2,1,9,3,1.0,0,0,0,0,-1,,asocial
01JVWAD35AX1AZFNQV7TBYGCN2,2,0,3,1.0,0,0,0,1,3,1.0,asocial
01JVWAD35AX1AZFNQV7TBYGCN2,2,1,3,1.0,0,0,1,0,3,1.0,asocial
01JVWAD35AX1AZFNQV7TBYGCN2,2,2,3,1.0,0,0,0,1,3,1.0,asocial
01JVWAD35AX1AZFNQV7TBYGCN2,2,3,3,1.0,1,0,1,0,3,1.0,asocial
01JVWAD35AX1AZFNQV7TBYGCN2,2,4,3,1.0,0,0,1,0,3,1.0,asocial
01JVWAD35AX1AZFNQV7TBYGCN2,2,5,3,1.0,0,0,0,0,3,1.0,asocial
01JVWAD35AX1AZFNQV7TBYGCN2,2,6,3,1.0,0,0,0,1,3,1.0,asocial
01JVWAD35AX1AZFNQV7TBYGCN2,2,7,3,1.0,0,0,0,1,3,1.0,asocial
01JVWAD35AX1AZFNQV7TBYGCN2,2,8,3,1.0,0,0,1,0,3,1.0,asocial
01JVWAD35AX1AZFNQV7TBYGCN2,2,9,3,1.0,0,0,1,0,3,1.0,asocial
01JVWAD35AX1AZFNQV7TBYGCN2,3,0,3,1.0,0,0,0,1,3,1.0,asocial
01JVWAD35AX1AZFNQV7TBYGCN2,3,1,3,1.0,0,0,2,0,3,1.0,asocial
01JVWAD35AX1AZFNQV7TBYGCN2,3,2,3,1.0,0,0,0,1,3,1.0,asocial
01JVWAD35AX1AZFNQV7TBYGCN2,3,3,3,1.0,2,0,3,0,3,1.0,asocial
01JVWAD35AX1AZFNQV7TBYGCN2,3,4,3,1.0,0,0,2,0,3,1.0,asocial
01JVWAD35AX1AZFNQV7TBYGCN2,3,5,3,1.0,0,0,1,0,3,1.0,asocial
01JVWAD35AX1AZFNQV7TBYGCN2,3,6,3,1.0,0,0,0,1,3,1.0,asocial
01JVWAD35AX1AZFNQV7TBYGCN2,3,7,3,1.0,0,0,0,1,3,1.0,asocial
01JVWAD35AX1AZFNQV7TBYGCN2,3,8,3,1.0,0,0,3,0,3,1.0,asocial
01JVWAD35AX1AZFNQV7TBYGCN2,3,9,3,1.0,0,0,4,0,3,1.0,asocial
01JVWAD35AX1AZFNQV7TBYGCN2,4,0,9,1.0,0,0,0,1,3,1.0,asocial
01JVWAD35AX1AZFNQV7TBYGCN2,4,1,9,1.0,0,0,2,0,3,1.0,asocial
01JVWAD35AX1AZFNQV7TBYGCN2,4,2,9,1.0,0,0,0,1,3,1.0,asocial
01JVWAD35AX1AZFNQV7TBYGCN2,4,3,9,1.0,3,0,4,0,3,1.0,asocial
01JVWAD35AX1AZFNQV7TBYGCN2,4,4,9,1.0,0,0,3,0,3,1.0,asocial
01JVWAD35AX1AZFNQV7TBYGCN2,4,5,9,1.0,0,0,1,0,3,1.0,asocial
01JVWAD35AX1AZFNQV7TBYGCN2,4,6,9,1.0,0,0,0,1,3,1.0,asocial
01JVWAD35AX1AZFNQV7TBYGCN2,4,7,9,1.0,0,0,0,1,3,1.0,asocial
01JVWAD35AX1AZFNQV7TBYGCN2,4,8,9,1.0,0,0,3,0,3,1.0,asocial
01JVWAD35AX1AZFNQV7TBYGCN2,4,9,9,1.0,0,0,12,0,3,1.0,asocial
01JVWAD35AX1AZFNQV7TBYGCN2,5,0,3,1.0,0,0,0,1,9,1.0,asocial
01JVWAD35AX1AZFNQV7TBYGCN2,5,1,3,1.0,0,0,2,0,9,1.0,asocial
01JVWAD35AX1AZFNQV7TBYGCN2,5,2,3,1.0,0,0,0,1,9,1.0,asocial
01JVWAD35AX1AZFNQV7TBYGCN2,5,3,3,1.0,3,0,4,0,9,1.0,asocial
01JVWAD35AX1AZFNQV7TBYGCN2,5,4,3,1.0,0,0,3,0,9,1.0,asocial
01JVWAD35AX1AZFNQV7TBYGCN2,5,5,3,1.0,0,0,1,0,9,1.0,asocial
01JVWAD35AX1AZFNQV7TBYGCN2,5,6,3,1.0,0,0,0,1,9,1.0,asocial
01JVWAD35AX1AZFNQV7TBYGCN2,5,7,3,1.0,0,0,0,1,9,1.0,asocial
01JVWAD35AX1AZFNQV7TBYGCN2,5,8,3,1.0,0,0,3,0,9,1.0,asocial
01JVWAD35AX1AZFNQV7TBYGCN2,5,9,3,1.0,1,0,22,0,9,1.0,asocial
01JVWAD35AX1AZFNQV7TBYGCN2,6,0,3,1.0,0,0,0,1,3,1.0,asocial
01JVWAD35AX1AZFNQV7TBYGCN2,6,1,3,1.0,0,0,2,0,3,1.0,asocial
01JVWAD35AX1AZFNQV7TBYGCN2,6,2,3,1.0,0,0,0,1,3,1.0,asocial
01JVWAD35AX1AZFNQV7TBYGCN2,6,3,3,1.0,4,0,5,0,3,1.0,asocial
01JVWAD35AX1AZFNQV7TBYGCN2,6,4,3,1.0,0,0,3,0,3,1.0,asocial
01JVWAD35AX1AZFNQV7TBYGCN2,6,5,3,1.0,0,0,1,0,3,1.0,asocial
01JVWAD35AX1AZFNQV7TBYGCN2,6,6,3,1.0,0,0,0,1,3,1.0,asocial
01JVWAD35AX1AZFNQV7TBYGCN2,6,7,3,1.0,0,0,0,1,3,1.0,asocial
01JVWAD35AX1AZFNQV7TBYGCN2,6,8,3,1.0,0,0,3,0,3,1.0,asocial
01JVWAD35AX1AZFNQV7TBYGCN2,6,9,3,1.0,1,0,30,1,3,1.0,asocial
01JVWAD35AX1AZFNQV7TBYGCN2,7,0,3,1.0,0,0,0,1,3,1.0,asocial
01JVWAD35AX1AZFNQV7TBYGCN2,7,1,3,1.0,0,0,2,0,3,1.0,asocial
01JVWAD35AX1AZFNQV7TBYGCN2,7,2,3,1.0,0,0,0,1,3,1.0,asocial
01JVWAD35AX1AZFNQV7TBYGCN2,7,3,3,1.0,5,0,7,0,3,1.0,asocial
01JVWAD35AX1AZFNQV7TBYGCN2,7,4,3,1.0,0,0,3,0,3,1.0,asocial
01JVWAD35AX1AZFNQV7TBYGCN2,7,5,3,1.0,0,0,1,0,3,1.0,asocial
01JVWAD35AX1AZFNQV7TBYGCN2,7,6,3,1.0,0,0,0,1,3,1.0,asocial
01JVWAD35AX1AZFNQV7TBYGCN2,7,7,3,1.0,0,0,0,1,3,1.0,asocial
01JVWAD35AX1AZFNQV7TBYGCN2,7,8,3,1.0,0,0,3,0,3,1.0,asocial
01JVWAD35AX1AZFNQV7TBYGCN2,7,9,3,1.0,1,0,38,1,3,1.0,asocial
01JVWAD35AX1AZFNQV7TBYGCN2,8,0,3,1.0,0,0,0,1,3,1.0,asocial
01JVWAD35AX1AZFNQV7TBYGCN2,8,1,3,1.0,0,0,2,0,3,1.0,asocial
01JVWAD35AX1AZFNQV7TBYGCN2,8,2,3,1.0,0,0,0,1,3,1.0,asocial
01JVWAD35AX1AZFNQV7TBYGCN2,8,3,3,1.0,6,0,8,1,3,1.0,asocial
01JVWAD35AX1AZFNQV7TBYGCN2,8,4,3,1.0,0,0,3,0,3,1.0,asocial
01JVWAD35AX1AZFNQV7TBYGCN2,8,5,3,1.0,0,0,1,0,3,1.0,asocial
01JVWAD35AX1AZFNQV7TBYGCN2,8,6,3,1.0,0,0,0,1,3,1.0,asocial
01JVWAD35AX1AZFNQV7TBYGCN2,8,7,3,1.0,0,0,0,1,3,1.0,asocial
01JVWAD35AX1AZFNQV7TBYGCN2,8,8,3,1.0,0,0,3,0,3,1.0,asocial
01JVWAD35AX1AZFNQV7TBYGCN2,8,9,3,1.0,1,0,45,2,3,1.0,asocial
01JVWAD35AX1AZFNQV7TBYGCN2,9,0,3,1.0,0,0,0,1,3,1.0,asocial
01JVWAD35AX1AZFNQV7TBYGCN2,9,1,3,1.0,0,0,2,0,3,1.0,asocial
01JVWAD35AX1AZFNQV7TBYGCN2,9,2,3,1.0,0,0,0,1,3,1.0,asocial
01JVWAD35AX1AZFNQV7TBYGCN2,9,3,3,1.0,7,0,9,1,3,1.0,asocial
01JVWAD35AX1AZFNQV7TBYGCN2,9,4,3,1.0,0,0,3,0,3,1.0,asocial
01JVWAD35AX1AZFNQV7TBYGCN2,9,5,3,1.0,0,0,1,0,3,1.0,asocial
01JVWAD35AX1AZFNQV7TBYGCN2,9,6,3,1.0,0,0,0,1,3,1.0,asocial
01JVWAD35AX1AZFNQV7TBYGCN2,9,7,3,1.0,0,0,0,1,3,1.0,asocial
01JVWAD35AX1AZFNQV7TBYGCN2,9,8,3,1.0,0,0,3,0,3,1.0,asocial
01JVWAD35AX1AZFNQV7TBYGCN2,9,9,3,1.0,1,0,54,2,3,1.0,asocial
01JVWAD35AX1AZFNQV7TBYGCN2,10,0,3,0.0,0,0,0,1,3,1.0,asocial
01JVWAD35AX1AZFNQV7TBYGCN2,10,1,3,0.0,0,0,2,0,3,1.0,asocial
01JVWAD35AX1AZFNQV7TBYGCN2,10,2,3,0.0,0,0,0,1,3,1.0,asocial
01JVWAD35AX1AZFNQV7TBYGCN2,10,3,3,0.0,8,0,10,1,3,1.0,asocial
01JVWAD35AX1AZFNQV7TBYGCN2,10,4,3,0.0,0,0,3,0,3,1.0,asocial
01JVWAD35AX1AZFNQV7TBYGCN2,10,5,3,0.0,0,0,1,0,3,1.0,asocial
01JVWAD35AX1AZFNQV7TBYGCN2,10,6,3,0.0,0,0,0,1,3,1.0,asocial
01JVWAD35AX1AZFNQV7TBYGCN2,10,7,3,0.0,0,0,0,1,3,1.0,asocial
01JVWAD35AX1AZFNQV7TBYGCN2,10,8,3,0.0,0,0,4,0,3,1.0,asocial
01JVWAD35AX1AZFNQV7TBYGCN2,10,9,3,0.0,1,0,62,2,3,1.0,asocial
01JVWAD35AX1AZFNQV7TBYGCN2,11,0,9,1.0,0,0,0,1,3,0.0,asocial
01JVWAD35AX1AZFNQV7TBYGCN2,11,1,9,1.0,0,0,2,0,3,0.0,asocial
01JVWAD35AX1AZFNQV7TBYGCN2,11,2,9,1.0,0,0,0,1,3,0.0,asocial
01JVWAD35AX1AZFNQV7TBYGCN2,11,3,9,1.0,8,1,10,2,3,0.0,asocial
01JVWAD35AX1AZFNQV7TBYGCN2,11,4,9,1.0,0,0,4,0,3,0.0,asocial
01JVWAD35AX1AZFNQV7TBYGCN2,11,5,9,1.0,0,0,1,0,3,0.0,asocial
01JVWAD35AX1AZFNQV7TBYGCN2,11,6,9,1.0,0,0,0,1,3,0.0,asocial
01JVWAD35AX1AZFNQV7TBYGCN2,11,7,9,1.0,0,0,0,1,3,0.0,asocial
01JVWAD35AX1AZFNQV7TBYGCN2,11,8,9,1.0,0,0,4,0,3,0.0,asocial
01JVWAD35AX1AZFNQV7TBYGCN2,11,9,9,1.0,1,0,70,2,3,0.0,asocial
01JVWAD35AX1AZFNQV7TBYGCN2,12,0,3,0.0,0,0,0,1,9,1.0,asocial
01JVWAD35AX1AZFNQV7TBYGCN2,12,1,3,0.0,0,0,2,0,9,1.0,asocial
01JVWAD35AX1AZFNQV7TBYGCN2,12,2,3,0.0,0,0,0,1,9,1.0,asocial
01JVWAD35AX1AZFNQV7TBYGCN2,12,3,3,0.0,8,1,10,2,9,1.0,asocial
01JVWAD35AX1AZFNQV7TBYGCN2,12,4,3,0.0,0,0,5,0,9,1.0,asocial
01JVWAD35AX1AZFNQV7TBYGCN2,12,5,3,0.0,0,0,1,0,9,1.0,asocial
01JVWAD35AX1AZFNQV7TBYGCN2,12,6,3,0.0,0,0,0,1,9,1.0,asocial
01JVWAD35AX1AZFNQV7TBYGCN2,12,7,3,0.0,0,0,0,1,9,1.0,asocial
01JVWAD35AX1AZFNQV7TBYGCN2,12,8,3,0.0,0,0,4,0,9,1.0,asocial
01JVWAD35AX1AZFNQV7TBYGCN2,12,9,3,0.0,2,0,79,2,9,1.0,asocial
01JVWAD35AX1AZFNQV7TBYGCN2,13,0,9,1.0,0,0,0,1,3,0.0,asocial
01JVWAD35AX1AZFNQV7TBYGCN2,13,1,9,1.0,0,0,2,0,3,0.0,asocial
01JVWAD35AX1AZFNQV7TBYGCN2,13,2,9,1.0,0,0,0,1,3,0.0,asocial
01JVWAD35AX1AZFNQV7TBYGCN2,13,3,9,1.0,8,2,10,3,3,0.0,asocial
01JVWAD35AX1AZFNQV7TBYGCN2,13,4,9,1.0,0,0,6,0,3,0.0,asocial
01JVWAD35AX1AZFNQV7TBYGCN2,13,5,9,1.0,0,0,1,0,3,0.0,asocial
01JVWAD35AX1AZFNQV7TBYGCN2,13,6,9,1.0,0,0,0,1,3,0.0,asocial
