participant_id,round,arm,choice,reward,own_success,own_failure,group_success,group_failure,prev_choice,prev_reward,condition
01JWBYFE620JFGXNYV478VBSRX,1,0,7,1.0,0,0,0,0,-1,,asocial
01JWBYFE620JFGXNYV478VBSRX,1,1,7,1.0,0,0,0,0,-1,,asocial
01JWBYFE620JFGXNYV478VBSRX,1,2,7,1.0,0,0,0,0,-1,,asocial
01JWBYFE620JFGXNYV478VBSRX,1,3,7,1.0,0,0,0,0,-1,,asocial
01JWBYFE620JFGXNYV478VBSRX,1,4,7,1.0,0,0,0,0,-1,,asocial
01JWBYFE620JFGXNYV478VBSRX,1,5,7,1.0,0,0,0,0,-1,,asocial
01JWBYFE620JFGXNYV478VBSRX,1,6,7,1.0,0,0,0,0,-1,,asocial
01JWBYFE620JFGXNYV478VBSRX,1,7,7,1.0,0,0,0,0,-1,,asocial
01JWBYFE620JFGXNYV478VBSRX,1,8,7,1.0,0,0,0,0,-1,,asocial
01JWBYFE620JFGXNYV478VBSRX,1,9,7,1.0,0,0,0,0,-1,,asocial
01JWBYFE620JFGXNYV478VBSRX,2,0,9,1.0,0,0,1,0,7,1.0,asocial
01JWBYFE620JFGXNYV478VBSRX,2,1,9,1.0,0,0,1,0,7,1.0,asocial
01JWBYFE620JFGXNYV478VBSRX,2,2,9,1.0,0,0,0,1,7,1.0,asocial
01JWBYFE620JFGXNYV478VBSRX,2,3,9,1.0,0,0,1,0,7,1.0,asocial
01JWBYFE620JFGXNYV478VBSRX,2,4,9,1.0,0,0,1,0,7,1.0,asocial
01JWBYFE620JFGXNYV478VBSRX,2,5,9,1.0,0,0,0,0,7,1.0,asocial
01JWBYFE620JFGXNYV478VBSRX,2,6,9,1.0,0,0,1,0,7,1.0,asocial
01JWBYFE620JFGXNYV478VBSRX,2,7,9,1.0,1,0,1,0,7,1.0,asocial
01JWBYFE620JFGXNYV478VBSRX,2,8,9,1.0,0,0,0,0,7,1.0,asocial
01JWBYFE620JFGXNYV478VBSRX,2,9,9,1.0,0,0,1,0,7,1.0,asocial
01JWBYFE620JFGXNYV478VBSRX,3,0,6,1.0,0,0,3,0,9,1.0,asocial
01JWBYFE620JFGXNYV478VBSRX,3,1,6,1.0,0,0,1,1,9,1.0,asocial
01JWBYFE620JFGXNYV478VBSRX,3,2,6,1.0,0,0,0,1,9,1.0,asocial
01JWBYFE620JFGXNYV478VBSRX,3,3,6,1.0,0,0,2,0,9,1.0,asocial
01JWBYFE620JFGXNYV478VBSRX,3,4,6,1.0,0,0,2,0,9,1.0,asocial
01JWBYFE620JFGXNYV478VBSRX,3,5,6,1.0,0,0,0,0,9,1.0,asocial
01JWBYFE620JFGXNYV478VBSRX,3,6,6,1.0,0,0,1,0,9,1.0,asocial
01JWBYFE620JFGXNYV478VBSRX,3,7,6,1.0,1,0,1,0,9,1.0,asocial
01JWBYFE620JFGXNYV478VBSRX,3,8,6,1.0,0,0,2,0,9,1.0,asocial
01JWBYFE620JFGXNYV478VBSRX,3,9,6,1.0,1,0,3,0,9,1.0,asocial
01JWBYFE620JFGXNYV478VBSRX,4,0,5,1.0,0,0,4,0,6,1.0,asocial
01JWBYFE620JFGXNYV478VBSRX,4,1,5,1.0,0,0,1,1,6,1.0,asocial
01JWBYFE620JFGXNYV478VBSRX,4,2,5,1.0,0,0,1,1,6,1.0,asocial
01JWBYFE620JFGXNYV478VBSRX,4,3,5,1.0,0,0,3,0,6,1.0,asocial
01JWBYFE620JFGXNYV478VBSRX,4,4,5,1.0,0,0,2,0,6,1.0,asocial
01JWBYFE620JFGXNYV478VBSRX,4,5,5,1.0,0,0,0,0,6,1.0,asocial
01JWBYFE620JFGXNYV478VBSRX,4,6,5,1.0,1,0,4,0,6,1.0,asocial
01JWBYFE620JFGXNYV478VBSRX,4,7,5,1.0,1,0,1,0,6,1.0,asocial
01JWBYFE620JFGXNYV478VBSRX,4,8,5,1.0,0,0,4,0,6,1.0,asocial
01JWBYFE620JFGXNYV478VBSRX,4,9,5,1.0,1,0,3,1,6,1.0,asocial
01JWBYFE620JFGXNYV478VBSRX,5,0,9,1.0,0,0,6,0,5,1.0,asocial
01JWBYFE620JFGXNYV478VBSRX,5,1,9,1.0,0,0,1,1,5,1.0,asocial
01JWBYFE620JFGXNYV478VBSRX,5,2,9,1.0,0,0,1,1,5,1.0,asocial
01JWBYFE620JFGXNYV478VBSRX,5,3,9,1.0,0,0,4,0,5,1.0,asocial
01JWBYFE620JFGXNYV478VBSRX,5,4,9,1.0,0,0,2,0,5,1.0,asocial
01JWBYFE620JFGXNYV478VBSRX,5,5,9,1.0,1,0,2,0,5,1.0,asocial
01JWBYFE620JFGXNYV478VBSRX,5,6,9,1.0,1,0,6,0,5,1.0,asocial
01JWBYFE620JFGXNYV478VBSRX,5,7,9,1.0,1,0,1,0,5,1.0,asocial
01JWBYFE620JFGXNYV478VBSRX,5,8,9,1.0,0,0,6,0,5,1.0,asocial
01JWBYFE620JFGXNYV478VBSRX,5,9,9,1.0,1,0,4,1,5,1.0,asocial
01JWBYFE620JFGXNYV478VBSRX,6,0,2,1.0,0,0,8,0,9,1.0,asocial
01JWBYFE620JFGXNYV478VBSRX,6,1,2,1.0,0,0,1,1,9,1.0,asocial
01JWBYFE620JFGXNYV478VBSRX,6,2,2,1.0,0,0,1,1,9,1.0,asocial
01JWBYFE620JFGXNYV478VBSRX,6,3,2,1.0,0,0,5,0,9,1.0,asocial
01JWBYFE620JFGXNYV478VBSRX,6,4,2,1.0,0,0,2,0,9,1.0,asocial
01JWBYFE620JFGXNYV478VBSRX,6,5,2,1.0,1,0,3,0,9,1.0,asocial
01JWBYFE620JFGXNYV478VBSRX,6,6,2,1.0,1,0,8,0,9,1.0,asocial
01JWBYFE620JFGXNYV478VBSRX,6,7,2,1.0,1,0,1,0,9,1.0,asocial
01JWBYFE620JFGXNYV478VBSRX,6,8,2,1.0,0,0,7,1,9,1.0,asocial
01JWBYFE620JFGXNYV478VBSRX,6,9,2,1.0,2,0,6,1,9,1.0,asocial
01JWBYFE620JFGXNYV478VBSRX,7,0,0,1.0,0,0,10,0,2,1.0,asocial
01JWBYFE620JFGXNYV478VBSRX,7,1,0,1.0,0,0,1,1,2,1.0,asocial
01JWBYFE620JFGXNYV478VBSRX,7,2,0,1.0,1,0,2,1,2,1.0,asocial
01JWBYFE620JFGXNYV478VBSRX,7,3,0,1.0,0,0,6,0,2,1.0,asocial
01JWBYFE620JFGXNYV478VBSRX,7,4,0,1.0,0,0,3,0,2,1.0,asocial
01JWBYFE620JFGXNYV478VBSRX,7,5,0,1.0,1,0,4,0,2,1.0,asocial
01JWBYFE620JFGXNYV478VBSRX,7,6,0,1.0,1,0,9,0,2,1.0,asocial
01JWBYFE620JFGXNYV478VBSRX,7,7,0,1.0,1,0,1,0,2,1.0,asocial
01JWBYFE620JFGXNYV478VBSRX,7,8,0,1.0,0,0,9,1,2,1.0,asocial
01JWBYFE620JFGXNYV478VBSRX,7,9,0,1.0,2,0,7,1,2,1.0,asocial
01JWBYFE620JFGXNYV478VBSRX,8,0,9,1.0,1,0,13,0,0,1.0,asocial
01JWBYFE620JFGXNYV478VBSRX,8,1,9,1.0,0,0,1,1,0,1.0,asocial
01JWBYFE620JFGXNYV478VBSRX,8,2,9,1.0,1,0,2,1,0,1.0,asocial
01JWBYFE620JFGXNYV478VBSRX,8,3,9,1.0,0,0,7,0,0,1.0,asocial
01JWBYFE620JFGXNYV478VBSRX,8,4,9,1.0,0,0,3,0,0,1.0,asocial
01JWBYFE620JFGXNYV478VBSRX,8,5,9,1.0,1,0,5,0,0,1.0,asocial
01JWBYFE620JFGXNYV478VBSRX,8,6,9,1.0,1,0,10,0,0,1.0,asocial
01JWBYFE620JFGXNYV478VBSRX,8,7,9,1.0,1,0,2,0,0,1.0,asocial
01JWBYFE620JFGXNYV478VBSRX,8,8,9,1.0,0,0,11,1,0,1.0,asocial
01JWBYFE620JFGXNYV478VBSRX,8,9,9,1.0,2,0,7,2,0,1.0,asocial
01JWBYFE620JFGXNYV478VBSRX,9,0,5,1.0,1,0,15,0,9,1.0,asocial
01JWBYFE620JFGXNYV478VBSRX,9,1,5,1.0,0,0,1,1,9,1.0,asocial
01JWBYFE620JFGXNYV478VBSRX,9,2,5,1.0,1,0,2,1,9,1.0,asocial
01JWBYFE620JFGXNYV478VBSRX,9,3,5,1.0,0,0,8,1,9,1.0,asocial
01JWBYFE620JFGXNYV478VBSRX,9,4,5,1.0,0,0,3,0,9,1.0,asocial
01JWBYFE620JFGXNYV478VBSRX,9,5,5,1.0,1,0,6,0,9,1.0,asocial
01JWBYFE620JFGXNYV478VBSRX,9,6,5,1.0,1,0,11,0,9,1.0,asocial
01JWBYFE620JFGXNYV478VBSRX,9,7,5,1.0,1,0,2,0,9,1.0,asocial
01JWBYFE620JFGXNYV478VBSRX,9,8,5,1.0,0,0,12,2,9,1.0,asocial
01JWBYFE620JFGXNYV478VBSRX,9,9,5,1.0,3,0,8,3,9,1.0,asocial
01JWBYFE620JFGXNYV478VBSRX,10,0,9,1.0,1,0,16,0,5,1.0,asocial
01JWBYFE620JFGXNYV478VBSRX,10,1,9,1.0,0,0,2,1,5,1.0,asocial
01JWBYFE620JFGXNYV478VBSRX,10,2,9,1.0,1,0,2,1,5,1.0,asocial
01JWBYFE620JFGXNYV478VBSRX,10,3,9,1.0,0,0,9,1,5,1.0,asocial
01JWBYFE620JFGXNYV478VBSRX,10,4,9,1.0,0,0,3,0,5,1.0,asocial
01JWBYFE620JFGXNYV478VBSRX,10,5,9,1.0,2,0,8,0,5,1.0,asocial
01JWBYFE620JFGXNYV478VBSRX,10,6,9,1.0,1,0,13,0,5,1.0,asocial
01JWBYFE620JFGXNYV478VBSRX,10,7,9,1.0,1,0,2,0,5,1.0,asocial
01JWBYFE620JFGXNYV478VBSRX,10,8,9,1.0,0,0,14,2,5,1.0,asocial
01JWBYFE620JFGXNYV478VBSRX,10,9,9,1.0,3,0,8,4,5,1.0,asocial
01JWBYFE620JFGXNYV478VBSRX,11,0,4,1.0,1,0,17,0,9,1.0,asocial
01JWBYFE620JFGXNYV478VBSRX,11,1,4,1.0,0,0,2,1,9,1.0,asocial
01JWBYFE620JFGXNYV478VBSRX,11,2,4,1.0,1,0,2,1,9,1.0,asocial
01JWBYFE620JFGXNYV478VBSRX,11,3,4,1.0,0,0,10,1,9,1.0,asocial
01JWBYFE620JFGXNYV478VBSRX,11,4,4,1.0,0,0,3,0,9,1.0,asocial
01JWBYFE620JFGXNYV478VBSRX,11,5,4,1.0,2,0,10,0,9,1.0,asocial
01JWBYFE620JFGXNYV478VBSRX,11,6,4,1.0,1,0,14,0,9,1.0,asocial
01JWBYFE620JFGXNYV478VBSRX,11,7,4,1.0,1,0,2,0,9,1.0,asocial
01JWBYFE620JFGXNYV478VBSRX,11,8,4,1.0,0,0,17,2,9,1.0,asocial
01JWBYFE620JFGXNYV478VBSRX,11,9,4,1.0,4,0,10,4,9,1.0,asocial
01JWBYFE620JFGXNYV478VBSRX,12,0,6,1.0,1,0,18,0,4,1.0,asocial
01JWBYFE620JFGXNYV478VBSRX,12,1,6,1.0,0,0,2,1,4,1.0,asocial
01JWBYFE620JFGXNYV478VBSRX,12,2,6,1.0,1,0,2,1,4,1.0,asocial
01JWBYFE620JFGXNYV478VBSRX,12,3,6,1.0,0,0,11,2,4,1.0,asocial
01JWBYFE620JFGXNYV478VBSRX,12,4,6,1.0,1,0,4,0,4,1.0,asocial
01JWBYFE620JFGXNYV478VBSRX,12,5,6,1.0,2,0,11,0,4,1.0,asocial
01JWBYFE620JFGXNYV478VBSRX,12,6,6,1.0,1,0,15,0,4,1.0,asocial
01JWBYFE620JFGXNYV478VBSRX,12,7,6,1.0,1,0,2,0,4,1.0,asocial
01JWBYFE620JFGXNYV478VBSRX,12,8,6,1.0,0,0,20,2,4,1.0,asocial
01JWBYFE620JFGXNYV478VBSRX,12,9,6,1.0,4,0,11,4,4,1.0,asocial
01JWBYFE620JFGXNYV478VBSRX,14,0,6,0.0,1,0,20,0,-1,,asocial
01JWBYFE620JFGXNYV478VBSRX,14,1,6,0.0,0,0,3,1,-1,,asocial
01JWBYFE620JFGXNYV478VBSRX,14,2,6,0.0,1,0,2,1,-1,,asocial
01JWBYFE620JFGXNYV478VBSRX,14,3,6,0.0,0,0,13,2,-1,,asocial
01JWBYFE620JFGXNYV478VBSRX,14,4,6,0.0,1,0,4,0,-1,,asocial
01JWBYFE620JFGXNYV478VBSRX,14,5,6,0.0,2,0,13,0,-1,,asocial
01JWBYFE620JFGXNYV478VBSRX,14,6,6,0.0,2,0,18,0,-1,,asocial
01JWBYFE620JFGXNYV478VBSRX,14,7,6,0.0,1,0,3,0,-1,,asocial
01JWBYFE620JFGXNYV478VBSRX,14,8,6,0.0,0,0,25,4,-1,,asocial
01JWBYFE620JFGXNYV478VBSRX,14,9,6,0.0,4,0,12,4,-1,,asocial
01JWBYFE620JFGXNYV478VBSRX,15,0,6,0.0,1,0,21,0,6,0.0,asocial
01JWBYFE620JFGXNYV478VBSRX,15,1,6,0.0,0,0,3,1,6,0.0,asocial
01JWBYFE620JFGXNYV478VBSRX,15,2,6,0.0,1,0,2,1,6,0.0,asocial
01JWBYFE620JFGXNYV478VBSRX,15,3,6,0.0,0,0,14,2,6,0.0,asocial
01JWBYFE620JFGXNYV478VBSRX,15,4,6,0.0,1,0,4,0,6,0.0,asocial
01JWBYFE620JFGXNYV478VBSRX,15,5,6,0.0,2,0,14,0,6,0.0,asocial
01JWBYFE620JFGXNYV478VBSRX,15,6,6,0.0,2,1,21,1,6,0.0,asocial
01JWBYFE620JFGXNYV478VBSRX,15,7,6,0.0,1,0,3,0,6,0.0,asocial
01JWBYFE620JFGXNYV478VBSRX,15,8,6,0.0,0,0,27,5,6,0.0,asocial
01JWBYFE620JFGXNYV478VBSRX,15,9,6,0.0,4,0,12,4,6,0.0,asocial
01JWBYFE620JFGXNYV478VBSRX,16,0,9,1.0,1,0,23,0,6,0.0,asocial
01JWBYFE620JFGXNYV478VBSRX,16,1,9,1.0,0,0,3,1,6,0.0,asocial
01JWBYFE620JFGXNYV478VBSRX,16,2,9,1.0,1,0,3,1,6,0.0,asocial
01JWBYFE620JFGXNYV478VBSRX,16,3,9,1.0,0,0,15,2,6,0.0,asocial
01JWBYFE620JFGXNYV478VBSRX,16,4,9,1.0,1,0,4,0,6,0.0,asocial
01JWBYFE620JFGXNYV478VBSRX,16,5,9,1.0,2,0,15,0,6,0.0,asocial
01JWBYFE620JFGXNYV478VBSRX,16,6,9,1.0,2,2,22,2,6,0.0,asocial
01JWBYFE620JFGXNYV478VBSRX,16,7,9,1.0,1,0,3,0,6,0.0,asocial
01JWBYFE620JFGXNYV478VBSRX,16,8,9,1.0,0,0,30,5,6,0.0,asocial
01JWBYFE620JFGXNYV478VBSRX,16,9,9,1.0,4,0,12,4,6,0.0,asocial
01JWBYFE620JFGXNYV478VBSRX,17,0,6,1.0,1,0,24,0,9,1.0,asocial
01JWBYFE620JFGXNYV478VBSRX,17,1,6,1.0,0,0,3,1,9,1.0,asocial
01JWBYFE620JFGXNYV478VBSRX,17,2,6,1.0,1,0,3,1,9,1.0,asocial
01JWBYFE620JFGXNYV478VBSRX,17,3,6,1.0,0,0,16,2,9,1.0,asocial
01JWBYFE620JFGXNYV478VBSRX,17,4,6,1.0,1,0,4,0,9,1.0,asocial
01JWBYFE620JFGXNYV478VBSRX,17,5,6,1.0,2,0,16,0,9,1.0,asocial
01JWBYFE620JFGXNYV478VBSRX,17,6,6,1.0,2,2,24,2,9,1.0,asocial
01JWBYFE620JFGXNYV478VBSRX,17,7,6,1.0,1,0,3,1,9,1.0,asocial
01JWBYFE620JFGXNYV478VBSRX,17,8,6,1.0,0,0,33,5,9,1.0,asocial
01JWBYFE620JFGXNYV478VBSRX,17,9,6,1.0,5,0,13,4,9,1.0,asocial
01JWBYFE620JFGXNYV478VBSRX,18,0,9,1.0,1,0,25,1,6,1.0,asocial
01JWBYFE620JFGXNYV478VBSRX,18,1,9,1.0,0,0,3,1,6,1.0,asocial
01JWBYFE620JFGXNYV478VBSRX,18,2,9,1.0,1,0,3,1,6,1.0,asocial
01JWBYFE620JFGXNYV478VBSRX,18,3,9,1.0,0,0,16,3,6,1.0,asocial
01JWBYFE620JFGXNYV478VBSRX,18,4,9,1.0,1,0,4,0,6,1.0,asocial
01JWBYFE620JFGXNYV478VBSRX,18,5,9,1.0,2,0,17,0,6,1.0,asocial
01JWBYFE620JFGXNYV478VBSRX,18,6,9,1.0,3,2,26,3,6,1.0,asocial
01JWBYFE620JFGXNYV478VBSRX,18,7,9,1.0,1,0,3,1,6,1.0,asocial
01JWBYFE620JFGXNYV478VBSRX,18,8,9,1.0,0,0,36,5,6,1.0,asocial
01JWBYFE620JFGXNYV478VBSRX,18,9,9,1.0,5,0,13,4,6,1.0,asocial
01JWBYFE620JFGXNYV478VBSRX,19,0,5,1.0,1,0,26,1,9,1.0,asocial
01JWBYFE620JFGXNYV478VBSRX,19,1,5,1.0,0,0,3,1,9,1.0,asocial
01JWBYFE620JFGXNYV478VBSRX,19,2,5,1.0,1,0,3,1,9,1.0,asocial
01JWBYFE620JFGXNYV478VBSRX,19,3,5,1.0,0,0,17,3,9,1.0,asocial
01JWBYFE620JFGXNYV478VBSRX,19,4,5,1.0,1,0,4,0,9,1.0,asocial
01JWBYFE620JFGXNYV478VBSRX,19,5,5,1.0,2,0,18,0,9,1.0,asocial
01JWBYFE620JFGXNYV478VBSRX,19,6,5,1.0,3,2,28,3,9,1.0,asocial
01JWBYFE620JFGXNYV478VBSRX,19,7,5,1.0,1,0,3,1,9,1.0,asocial
01JWBYFE620JFGXNYV478VBSRX,19,8,5,1.0,0,0,38,5,9,1.0,asocial
01JWBYFE620JFGXNYV478VBSRX,19,9,5,1.0,6,0,15,4,9,1.0,asocial
01JWBYFE620JFGXNYV478VBSRX,20,0,9,1.0,1,0,27,2,5,1.0,asocial
01JWBYFE620JFGXNYV478VBSRX,20,1,9,1.0,0,0,3,1,5,1.0,asocial
01JWBYFE620JFGXNYV478VBSRX,20,2,9,1.0,1,0,4,1,5,1.0,asocial
01JWBYFE620JFGXNYV478VBSRX,20,3,9,1.0,0,0,18,3,5,1.0,asocial
01JWBYFE620JFGXNYV478VBSRX,20,4,9,1.0,1,0,4,0,5,1.0,asocial
01JWBYFE620JFGXNYV478VBSRX,20,5,9,1.0,3,0,20,0,5,1.0,asocial
01JWBYFE620JFGXNYV478VBSRX,20,6,9,1.0,3,2,29,3,5,1.0,asocial
01JWBYFE620JFGXNYV478VBSRX,20,7,9,1.0,1,0,3,1,5,1.0,asocial
01JWBYFE620JFGXNYV478VBSRX,20,8,9,1.0,0,0,41,5,5,1.0,asocial
01JWBYFE620JFGXNYV478VBSRX,20,9,9,1.0,6,0,15,4,5,1.0,asocial
01JWBYFE620JFGXNYV478VBSRX,21,0,9,1.0,1,0,28,2,9,1.0,asocial
01JWBYFE620JFGXNYV478VBSRX,21,1,9,1.0,0,0,3,1,9,1.0,asocial
01JWBYFE620JFGXNYV478VBSRX,21,2,9,1.0,1,0,5,1,9,1.0,asocial
01JWBYFE620JFGXNYV478VBSRX,21,3,9,1.0,0,0,19,3,9,1.0,asocial
01JWBYFE620JFGXNYV478VBSRX,21,4,9,1.0,1,0,5,0,9,1.0,asocial
01JWBYFE620JFGXNYV478VBSRX,21,5,9,1.0,3,0,21,0,9,1.0,asocial
01JWBYFE620JFGXNYV478VBSRX,21,6,9,1.0,3,2,30,3,9,1.0,asocial
01JWBYFE620JFGXNYV478VBSRX,21,7,9,1.0,1,0,3,1,9,1.0,asocial
01JWBYFE620JFGXNYV478VBSRX,21,8,9,1.0,0,0,44,5,9,1.0,asocial
01JWBYFE620JFGXNYV478VBSRX,21,9,9,1.0,7,0,16,4,9,1.0,asocial
01JWBYFE620JFGXNYV478VBSRX,22,0,1,1.0,1,0,29,2,9,1.0,asocial
01JWBYFE620JFGXNYV478VBSRX,22,1,1,1.0,0,0,3,1,9,1.0,asocial
01JWBYFE620JFGXNYV478VBSRX,22,2,1,1.0,1,0,5,1,9,1.0,asocial
01JWBYFE620JFGXNYV478VBSRX,22,3,1,1.0,0,0,20,3,9,1.0,asocial
01JWBYFE620JFGXNYV478VBSRX,22,4,1,1.0,1,0,5,0,9,1.0,asocial
01JWBYFE620JFGXNYV478VBSRX,22,5,1,1.0,3,0,23,0,9,1.0,asocial
01JWBYFE620JFGXNYV478VBSRX,22,6,1,1.0,3,2,31,3,9,1.0,asocial
01JWBYFE620JFGXNYV478VBSRX,22,7,1,1.0,1,0,3,1,9,1.0,asocial
01JWBYFE620JFGXNYV478VBSRX,22,8,1,1.0,0,0,48,5,9,1.0,asocial
01JWBYFE620JFGXNYV478VBSRX,22,9,1,1.0,8,0,17,4,9,1.0,asocial
01JWBYFE620JFGXNYV478VBSRX,23,0,1,1.0,1,0,30,2,1,1.0,asocial
01JWBYFE620JFGXNYV478VBSRX,23,1,1,1.0,1,0,4,1,1,1.0,asocial
01JWBYFE620JFGXNYV478VBSRX,23,2,1,1.0,1,0,5,1,1,1.0,asocial
01JWBYFE620JFGXNYV478VBSRX,23,3,1,1.0,0,0,21,3,1,1.0,asocial
01JWBYFE620JFGXNYV478VBSRX,23,4,1,1.0,1,0,5,0,1,1.0,asocial
01JWBYFE620JFGXNYV478VBSRX,23,5,1,1.0,3,0,26,0,1,1.0,asocial
01JWBYFE620JFGXNYV478VBSRX,23,6,1,1.0,3,2,32,3,1,1.0,asocial
01JWBYFE620JFGXNYV478VBSRX,23,7,1,1.0,1,0,3,1,1,1.0,asocial
01JWBYFE620JFGXNYV478VBSRX,23,8,1,1.0,0,0,51,5,1,1.0,asocial
01JWBYFE620JFGXNYV478VBSRX,23,9,1,1.0,8,0,17,4,1,1.0,asocial
01JWBYFE620JFGXNYV478VBSRX,24,0,9,1.0,1,0,31,2,1,1.0,asocial
01JWBYFE620JFGXNYV478VBSRX,24,1,9,1.0,2,0,5,1,1,1.0,asocial
01JWBYFE620JFGXNYV478VBSRX,24,2,9,1.0,1,0,5,2,1,1.0,asocial
01JWBYFE620JFGXNYV478VBSRX,24,3,9,1.0,0,0,22,3,1,1.0,asocial
01JWBYFE620JFGXNYV478VBSRX,24,4,9,1.0,1,0,5,0,1,1.0,asocial
01JWBYFE620JFGXNYV478VBSRX,24,5,9,1.0,3,0,27,0,1,1.0,asocial
01JWBYFE620JFGXNYV478VBSRX,24,6,9,1.0,3,2,34,3,1,1.0,asocial
01JWBYFE620JFGXNYV478VBSRX,24,7,9,1.0,1,0,3,1,1,1.0,asocial
01JWBYFE620JFGXNYV478VBSRX,24,8,9,1.0,0,0,54,5,1,1.0,asocial
01JWBYFE620JFGXNYV478VBSRX,24,9,9,1.0,8,0,17,4,1,1.0,asocial
01JWBYFE620JFGXNYV478VBSRX,25,0,3,1.0,1,0,32,2,9,1.0,asocial
01JWBYFE620JFGXNYV478VBSRX,25,1,3,1.0,2,0,5,1,9,1.0,asocial
01JWBYFE620JFGXNYV478VBSRX,25,2,3,1.0,1,0,5,2,9,1.0,asocial
01JWBYFE620JFGXNYV478VBSRX,25,3,3,1.0,0,0,23,3,9,1.0,asocial
01JWBYFE620JFGXNYV478VBSRX,25,4,3,1.0,1,0,5,0,9,1.0,asocial
01JWBYFE620JFGXNYV478VBSRX,25,5,3,1.0,3,0,28,0,9,1.0,asocial
01JWBYFE620JFGXNYV478VBSRX,25,6,3,1.0,3,2,36,3,9,1.0,asocial
01JWBYFE620JFGXNYV478VBSRX,25,7,3,1.0,1,0,4,1,9,1.0,asocial
01JWBYFE620JFGXNYV478VBSRX,25,8,3,1.0,0,0,57,5,9,1.0,asocial
01JWBYFE620JFGXNYV478VBSRX,25,9,3,1.0,9,0,18,4,9,1.0,asocial
01JWBYFE620JFGXNYV478VBSRX,26,0,8,0.0,1,0,33,2,3,1.0,asocial
01JWBYFE620JFGXNYV478VBSRX,26,1,8,0.0,2,0,5,1,3,1.0,asocial
01JWBYFE620JFGXNYV478VBSRX,26,2,8,0.0,1,0,5,2,3,1.0,asocial
01JWBYFE620JFGXNYV478VBSRX,26,3,8,0.0,1,0,26,3,3,1.0,asocial
01JWBYFE620JFGXNYV478VBSRX,26,4,8,0.0,1,0,5,0,3,1.0,asocial
01JWBYFE620JFGXNYV478VBSRX,26,5,8,0.0,3,0,29,0,3,1.0,asocial
01JWBYFE620JFGXNYV478VBSRX,26,6,8,0.0,3,2,38,3,3,1.0,asocial
01JWBYFE620JFGXNYV478VBSRX,26,7,8,0.0,1,0,4,1,3,1.0,asocial
01JWBYFE620JFGXNYV478VBSRX,26,8,8,0.0,0,0,60,5,3,1.0,asocial
01JWBYFE620JFGXNYV478VBSRX,26,9,8,0.0,9,0,18,4,3,1.0,asocial
01JWBYFE620JFGXNYV478VBSRX,27,0,9,1.0,1,0,34,2,8,0.0,asocial
01JWBYFE620JFGXNYV478VBSRX,27,1,9,1.0,2,0,5,1,8,0.0,asocial
01JWBYFE620JFGXNYV478VBSRX,27,2,9,1.0,1,0,5,2,8,0.0,asocial
01JWBYFE620JFGXNYV478VBSRX,27,3,9,1.0,1,0,28,3,8,0.0,asocial
01JWBYFE620JFGXNYV478VBSRX,27,4,9,1.0,1,0,5,0,8,0.0,asocial
01JWBYFE620JFGXNYV478VBSRX,27,5,9,1.0,3,0,30,0,8,0.0,asocial
01JWBYFE620JFGXNYV478VBSRX,27,6,9,1.0,3,2,39,3,8,0.0,asocial
01JWBYFE620JFGXNYV478VBSRX,27,7,9,1.0,1,0,4,1,8,0.0,asocial
01JWBYFE620JFGXNYV478VBSRX,27,8,9,1.0,0,1,63,6,8,0.0,asocial
01JWBYFE620JFGXNYV478VBSRX,27,9,9,1.0,9,0,19,4,8,0.0,asocial
01JWBYFE620JFGXNYV478VBSRX,28,0,9,1.0,1,0,35,2,9,1.0,asocial
01JWBYFE620JFGXNYV478VBSRX,28,1,9,1.0,2,0,5,1,9,1.0,asocial
01JWBYFE620JFGXNYV478VBSRX,28,2,9,1.0,1,0,5,2,9,1.0,asocial
01JWBYFE620JFGXNYV478VBSRX,28,3,9,1.0,1,0,29,3,9,1.0,asocial
01JWBYFE620JFGXNYV478VBSRX,28,4,9,1.0,1,0,5,0,9,1.0,asocial
01JWBYFE620JFGXNYV478VBSRX,28,5,9,1.0,3,0,32,0,9,1.0,asocial
01JWBYFE620JFGXNYV478VBSRX,28,6,9,1.0,3,2,40,3,9,1.0,asocial
01JWBYFE620JFGXNYV478VBSRX,28,7,9,1.0,1,0,4,1,9,1.0,asocial
01JWBYFE620JFGXNYV478VBSRX,28,8,9,1.0,0,1,66,6,9,1.0,asocial
01JWBYFE620JFGXNYV478VBSRX,28,9,9,1.0,10,0,21,4,9,1.0,asocial
01JWBYFE620JFGXNYV478VBSRX,29,0,9,1.0,1,0,36,2,9,1.0,asocial
01JWBYFE620JFGXNYV478VBSRX,29,1,9,1.0,2,0,5,1,9,1.0,asocial
01JWBYFE620JFGXNYV478VBSRX,29,2,9,1.0,1,0,5,2,9,1.0,asocial
01JWBYFE620JFGXNYV478VBSRX,29,3,9,1.0,1,0,30,3,9,1.0,asocial
01JWBYFE620JFGXNYV478VBSRX,29,4,9,1.0,1,0,5,0,9,1.0,asocial
01JWBYFE620JFGXNYV478VBSRX,29,5,9,1.0,3,0,33,0,9,1.0,asocial
01JWBYFE620JFGXNYV478VBSRX,29,6,9,1.0,3,2,41,3,9,1.0,asocial
01JWBYFE620JFGXNYV478VBSRX,29,7,9,1.0,1,0,4,1,9,1.0,asocial
01JWBYFE620JFGXNYV478VBSRX,29,8,9,1.0,0,1,69,6,9,1.0,asocial
01JWBYFE620JFGXNYV478VBSRX,29,9,9,1.0,11,0,24,4,9,1.0,asocial
01JWBYFE620JFGXNYV478VBSRX,30,0,9,0.0,1,0,37,2,9,1.0,asocial
01JWBYFE620JFGXNYV478VBSRX,30,1,9,0.0,2,0,6,1,9,1.0,asocial
01JWBYFE620JFGXNYV478VBSRX,30,2,9,0.0,1,0,5,2,9,1.0,asocial
01JWBYFE620JFGXNYV478VBSRX,30,3,9,0.0,1,0,31,3,9,1.0,asocial
01JWBYFE620JFGXNYV478VBSRX,30,4,9,0.0,1,0,5,0,9,1.0,asocial
01JWBYFE620JFGXNYV478VBSRX,30,5,9,0.0,3,0,34,0,9,1.0,asocial
01JWBYFE620JFGXNYV478VBSRX,30,6,9,0.0,3,2,42,3,9,1.0,asocial
01JWBYFE620JFGXNYV478VBSRX,30,7,9,0.0,1,0,4,1,9,1.0,asocial
01JWBYFE620JFGXNYV478VBSRX,30,8,9,0.0,0,1,71,7,9,1.0,asocial
01JWBYFE620JFGXNYV478VBSRX,30,9,9,0.0,12,0,26,4,9,1.0,asocial
01JWBYFE620JFGXNYV478VBSRX,31,0,6,1.0,1,0,38,2,9,0.0,asocial
01JWBYFE620JFGXNYV478VBSRX,31,1,6,1.0,2,0,6,1,9,0.0,asocial
01JWBYFE620JFGXNYV478VBSRX,31,2,6,1.0,1,0,5,2,9,0.0,asocial
01JWBYFE620JFGXNYV478VBSRX,31,3,6,1.0,1,0,31,4,9,0.0,asocial
01JWBYFE620JFGXNYV478VBSRX,31,4,6,1.0,1,0,5,0,9,0.0,asocial
01JWBYFE620JFGXNYV478VBSRX,31,5,6,1.0,3,0,35,0,9,0.0,asocial
01JWBYFE620JFGXNYV478VBSRX,31,6,6,1.0,3,2,43,4,9,0.0,asocial
01JWBYFE620JFGXNYV478VBSRX,31,7,6,1.0,1,0,4,1,9,0.0,asocial
01JWBYFE620JFGXNYV478VBSRX,31,8,6,1.0,0,1,74,8,9,0.0,asocial
01JWBYFE620JFGXNYV478VBSRX,31,9,6,1.0,12,1,26,5,9,0.0,asocial
01JWBYFE620JFGXNYV478VBSRX,32,0,9,1.0,1,0,39,2,6,1.0,asocial
01JWBYFE620JFGXNYV478VBSRX,32,1,9,1.0,2,0,6,1,6,1.0,asocial
01JWBYFE620JFGXNYV478VBSRX,32,2,9,1.0,1,0,5,2,6,1.0,asocial
01JWBYFE620JFGXNYV478VBSRX,32,3,9,1.0,1,0,32,4,6,1.0,asocial
01JWBYFE620JFGXNYV478VBSRX,32,4,9,1.0,1,0,5,0,6,1.0,asocial
01JWBYFE620JFGXNYV478VBSRX,32,5,9,1.0,3,0,36,0,6,1.0,asocial
01JWBYFE620JFGXNYV478VBSRX,32,6,9,1.0,4,2,45,4,6,1.0,asocial
01JWBYFE620JFGXNYV478VBSRX,32,7,9,1.0,1,0,5,1,6,1.0,asocial
01JWBYFE620JFGXNYV478VBSRX,32,8,9,1.0,0,1,77,8,6,1.0,asocial
01JWBYFE620JFGXNYV478VBSRX,32,9,9,1.0,12,1,27,5,6,1.0,asocial
01JWBYFE620JFGXNYV478VBSRX,33,0,8,1.0,1,0,40,2,9,1.0,asocial
01JWBYFE620JFGXNYV478VBSRX,33,1,8,1.0,2,0,6,1,9,1.0,asocial
01JWBYFE620JFGXNYV478VBSRX,33,2,8,1.0,1,0,5,2,9,1.0,asocial
01JWBYFE620JFGXNYV478VBSRX,33,3,8,1.0,1,0,33,4,9,1.0,asocial
01JWBYFE620JFGXNYV478VBSRX,33,4,8,1.0,1,0,5,0,9,1.0,asocial
01JWBYFE620JFGXNYV478VBSRX,33,5,8,1.0,3,0,37,0,9,1.0,asocial
01JWBYFE620JFGXNYV478VBSRX,33,6,8,1.0,4,2,46,4,9,1.0,asocial
01JWBYFE620JFGXNYV478VBSRX,33,7,8,1.0,1,0,6,1,9,1.0,asocial
01JWBYFE620JFGXNYV478VBSRX,33,8,8,1.0,0,1,79,9,9,1.0,asocial
01JWBYFE620JFGXNYV478VBSRX,33,9,8,1.0,13,1,29,5,9,1.0,asocial
01JWBYFE620JFGXNYV478VBSRX,34,0,9,1.0,1,0,41,2,8,1.0,asocial
01JWBYFE620JFGXNYV478VBSRX,34,1,9,1.0,2,0,6,1,8,1.0,asocial
01JWBYFE620JFGXNYV478VBSRX,34,2,9,1.0,1,0,5,2,8,1.0,asocial
01JWBYFE620JFGXNYV478VBSRX,34,3,9,1.0,1,0,34,4,8,1.0,asocial
01JWBYFE620JFGXNYV478VBSRX,34,4,9,1.0,1,0,6,0,8,1.0,asocial
01JWBYFE620JFGXNYV478VBSRX,34,5,9,1.0,3,0,38,0,8,1.0,asocial
01JWBYFE620JFGXNYV478VBSRX,34,6,9,1.0,4,2,47,4,8,1.0,asocial
01JWBYFE620JFGXNYV478VBSRX,34,7,9,1.0,1,0,7,1,8,1.0,asocial
01JWBYFE620JFGXNYV478VBSRX,34,8,9,1.0,1,1,83,9,8,1.0,asocial
01JWBYFE620JFGXNYV478VBSRX,34,9,9,1.0,13,1,29,5,8,1.0,asocial
01JWBYFE620JFGXNYV478VBSRX,35,0,9,1.0,1,0,42,2,9,1.0,asocial
01JWBYFE620JFGXNYV478VBSRX,35,1,9,1.0,2,0,7,1,9,1.0,asocial
01JWBYFE620JFGXNYV478VBSRX,35,2,9,1.0,1,0,5,2,9,1.0,asocial
01JWBYFE620JFGXNYV478VBSRX,35,3,9,1.0,1,0,36,4,9,1.0,asocial
01JWBYFE620JFGXNYV478VBSRX,35,4,9,1.0,1,0,6,0,9,1.0,asocial
01JWBYFE620JFGXNYV478VBSRX,35,5,9,1.0,3,0,39,0,9,1.0,asocial
01JWBYFE620JFGXNYV478VBSRX,35,6,9,1.0,4,2,48,4,9,1.0,asocial
01JWBYFE620JFGXNYV478VBSRX,35,7,9,1.0,1,0,7,2,9,1.0,asocial
01JWBYFE620JFGXNYV478VBSRX,35,8,9,1.0,1,1,85,9,9,1.0,asocial
01JWBYFE620JFGXNYV478VBSRX,35,9,9,1.0,14,1,30,5,9,1.0,asocial
01JWBYFE620JFGXNYV478VBSRX,36,0,9,1.0,1,0,43,2,9,1.0,asocial
01JWBYFE620JFGXNYV478VBSRX,36,1,9,1.0,2,0,7,1,9,1.0,asocial
01JWBYFE620JFGXNYV478VBSRX,36,2,9,1.0,1,0,6,2,9,1.0,asocial
01JWBYFE620JFGXNYV478VBSRX,36,3,9,1.0,1,0,38,4,9,1.0,asocial
01JWBYFE620JFGXNYV478VBSRX,36,4,9,1.0,1,0,6,0,9,1.0,asocial
01JWBYFE620JFGXNYV478VBSRX,36,5,9,1.0,3,0,40,0,9,1.0,asocial
01JWBYFE620JFGXNYV478VBSRX,36,6,9,1.0,4,2,49,4,9,1.0,asocial
01JWBYFE620JFGXNYV478VBSRX,36,7,9,1.0,1,0,7,2,9,1.0,asocial
01JWBYFE620JFGXNYV478VBSRX,36,8,9,1.0,1,1,86,10,9,1.0,asocial
01JWBYFE620JFGXNYV478VBSRX,36,9,9,1.0,15,1,32,5,9,1.0,asocial
01JWBYFE620JFGXNYV478VBSRX,37,0,9,0.0,1,0,44,2,9,1.0,asocial
01JWBYFE620JFGXNYV478VBSRX,37,1,9,0.0,2,0,7,1,9,1.0,asocial
01JWBYFE620JFGXNYV478VBSRX,37,2,9,0.0,1,0,6,2,9,1.0,asocial
01JWBYFE620JFGXNYV478VBSRX,37,3,9,0.0,1,0,40,4,9,1.0,asocial
01JWBYFE620JFGXNYV478VBSRX,37,4,9,0.0,1,0,6,0,9,1.0,asocial
01JWBYFE620JFGXNYV478VBSRX,37,5,9,0.0,3,0,42,0,9,1.0,asocial
01JWBYFE620JFGXNYV478VBSRX,37,6,9,0.0,4,2,49,5,9,1.0,asocial
01JWBYFE620JFGXNYV478VBSRX,37,7,9,0.0,1,0,7,2,9,1.0,asocial
01JWBYFE620JFGXNYV478VBSRX,37,8,9,0.0,1,1,88,10,9,1.0,asocial
01JWBYFE620JFGXNYV478VBSRX,37,9,9,0.0,16,1,34,5,9,1.0,asocial
01JWBYFE620JFGXNYV478VBSRX,38,0,5,1.0,1,0,44,3,9,0.0,asocial
01JWBYFE620JFGXNYV478VBSRX,38,1,5,1.0,2,0,7,1,9,0.0,asocial
01JWBYFE620JFGXNYV478VBSRX,38,2,5,1.0,1,0,6,2,9,0.0,asocial
01JWBYFE620JFGXNYV478VBSRX,38,3,5,1.0,1,0,41,5,9,0.0,asocial
01JWBYFE620JFGXNYV478VBSRX,38,4,5,1.0,1,0,6,1,9,0.0,asocial
01JWBYFE620JFGXNYV478VBSRX,38,5,5,1.0,3,0,43,0,9,0.0,asocial
01JWBYFE620JFGXNYV478VBSRX,38,6,5,1.0,4,2,50,5,9,0.0,asocial
01JWBYFE620JFGXNYV478VBSRX,38,7,5,1.0,1,0,7,2,9,0.0,asocial
01JWBYFE620JFGXNYV478VBSRX,38,8,5,1.0,1,1,90,11,9,0.0,asocial
01JWBYFE620JFGXNYV478VBSRX,38,9,5,1.0,16,2,34,6,9,0.0,asocial
01JWBYFE620JFGXNYV478VBSRX,39,0,5,1.0,1,0,45,3,5,1.0,asocial
01JWBYFE620JFGXNYV478VBSRX,39,1,5,1.0,2,0,7,1,5,1.0,asocial
01JWBYFE620JFGXNYV478VBSRX,39,2,5,1.0,1,0,6,2,5,1.0,asocial
01JWBYFE620JFGXNYV478VBSRX,39,3,5,1.0,1,0,43,5,5,1.0,asocial
01JWBYFE620JFGXNYV478VBSRX,39,4,5,1.0,1,0,6,1,5,1.0,asocial
01JWBYFE620JFGXNYV478VBSRX,39,5,5,1.0,4,0,45,0,5,1.0,asocial
01JWBYFE620JFGXNYV478VBSRX,39,6,5,1.0,4,2,51,5,5,1.0,asocial
01JWBYFE620JFGXNYV478VBSRX,39,7,5,1.0,1,0,8,2,5,1.0,asocial
01JWBYFE620JFGXNYV478VBSRX,39,8,5,1.0,1,1,93,11,5,1.0,asocial
01JWBYFE620JFGXNYV478VBSRX,39,9,5,1.0,16,2,34,6,5,1.0,asocial
01JWBYFE620JFGXNYV478VBSRX,40,0,0,1.0,1,0,46,3,5,1.0,asocial
01JWBYFE620JFGXNYV478VBSRX,40,1,0,1.0,2,0,7,1,5,1.0,asocial
01JWBYFE620JFGXNYV478VBSRX,40,2,0,1.0,1,0,6,2,5,1.0,asocial
01JWBYFE620JFGXNYV478VBSRX,40,3,0,1.0,1,0,45,5,5,1.0,asocial
01JWBYFE620JFGXNYV478VBSRX,40,4,0,1.0,1,0,7,1,5,1.0,asocial
01JWBYFE620JFGXNYV478VBSRX,40,5,0,1.0,5,0,47,0,5,1.0,asocial
01JWBYFE620JFGXNYV478VBSRX,40,6,0,1.0,4,2,52,5,5,1.0,asocial
01JWBYFE620JFGXNYV478VBSRX,40,7,0,1.0,1,0,8,2,5,1.0,asocial
01JWBYFE620JFGXNYV478VBSRX,40,8,0,1.0,1,1,96,11,5,1.0,asocial
01JWBYFE620JFGXNYV478VBSRX,40,9,0,1.0,16,2,34,6,5,1.0,asocial
01JWBYFE620JFGXNYV478VBSRX,41,0,0,1.0,2,0,48,3,0,1.0,asocial
01JWBYFE620JFGXNYV478VBSRX,41,1,0,1.0,2,0,8,1,0,1.0,asocial
01JWBYFE620JFGXNYV478VBSRX,41,2,0,1.0,1,0,6,2,0,1.0,asocial
01JWBYFE620JFGXNYV478VBSRX,41,3,0,1.0,1,0,47,5,0,1.0,asocial
01JWBYFE620JFGXNYV478VBSRX,41,4,0,1.0,1,0,7,1,0,1.0,asocial
01JWBYFE620JFGXNYV478VBSRX,41,5,0,1.0,5,0,48,0,0,1.0,asocial
01JWBYFE620JFGXNYV478VBSRX,41,6,0,1.0,4,2,52,6,0,1.0,asocial
01JWBYFE620JFGXNYV478VBSRX,41,7,0,1.0,1,0,8,2,0,1.0,asocial
01JWBYFE620JFGXNYV478VBSRX,41,8,0,1.0,1,1,99,11,0,1.0,asocial
01JWBYFE620JFGXNYV478VBSRX,41,9,0,1.0,16,2,34,6,0,1.0,asocial
01JWBYFE620JFGXNYV478VBSRX,42,0,3,1.0,3,0,50,3,0,1.0,asocial
01JWBYFE620JFGXNYV478VBSRX,42,1,3,1.0,2,0,8,1,0,1.0,asocial
01JWBYFE620JFGXNYV478VBSRX,42,2,3,1.0,1,0,6,2,0,1.0,asocial
01JWBYFE620JFGXNYV478VBSRX,42,3,3,1.0,1,0,49,5,0,1.0,asocial
01JWBYFE620JFGXNYV478VBSRX,42,4,3,1.0,1,0,7,1,0,1.0,asocial
01JWBYFE620JFGXNYV478VBSRX,42,5,3,1.0,5,0,49,0,0,1.0,asocial
01JWBYFE620JFGXNYV478VBSRX,42,6,3,1.0,4,2,53,7,0,1.0,asocial
01JWBYFE620JFGXNYV478VBSRX,42,7,3,1.0,1,0,8,2,0,1.0,asocial
01JWBYFE620JFGXNYV478VBSRX,42,8,3,1.0,1,1,101,12,0,1.0,asocial
01JWBYFE620JFGXNYV478VBSRX,42,9,3,1.0,16,2,34,6,0,1.0,asocial
01JWBYFE620JFGXNYV478VBSRX,43,0,5,1.0,3,0,52,3,3,1.0,asocial
01JWBYFE620JFGXNYV478VBSRX,43,1,5,1.0,2,0,9,1,3,1.0,asocial
01JWBYFE620JFGXNYV478VBSRX,43,2,5,1.0,1,0,6,2,3,1.0,asocial
01JWBYFE620JFGXNYV478VBSRX,43,3,5,1.0,2,0,52,5,3,1.0,asocial
01JWBYFE620JFGXNYV478VBSRX,43,4,5,1.0,1,0,7,1,3,1.0,asocial
01JWBYFE620JFGXNYV478VBSRX,43,5,5,1.0,5,0,50,0,3,1.0,asocial
01JWBYFE620JFGXNYV478VBSRX,43,6,5,1.0,4,2,54,7,3,1.0,asocial
01JWBYFE620JFGXNYV478VBSRX,43,7,5,1.0,1,0,8,2,3,1.0,asocial
01JWBYFE620JFGXNYV478VBSRX,43,8,5,1.0,1,1,103,12,3,1.0,asocial
01JWBYFE620JFGXNYV478VBSRX,43,9,5,1.0,16,2,34,6,3,1.0,asocial
01JWBYFE620JFGXNYV478VBSRX,44,0,5,1.0,3,0,53,3,5,1.0,asocial
01JWBYFE620JFGXNYV478VBSRX,44,1,5,1.0,2,0,9,1,5,1.0,asocial
01JWBYFE620JFGXNYV478VBSRX,44,2,5,1.0,1,0,6,2,5,1.0,asocial
01JWBYFE620JFGXNYV478VBSRX,44,3,5,1.0,2,0,52,6,5,1.0,asocial
01JWBYFE620JFGXNYV478VBSRX,44,4,5,1.0,1,0,7,1,5,1.0,asocial
01JWBYFE620JFGXNYV478VBSRX,44,5,5,1.0,6,0,54,0,5,1.0,asocial
01JWBYFE620JFGXNYV478VBSRX,44,6,5,1.0,4,2,55,7,5,1.0,asocial
01JWBYFE620JFGXNYV478VBSRX,44,7,5,1.0,1,0,8,2,5,1.0,asocial
01JWBYFE620JFGXNYV478VBSRX,44,8,5,1.0,1,1,106,12,5,1.0,asocial
01JWBYFE620JFGXNYV478VBSRX,44,9,5,1.0,16,2,34,6,5,1.0,asocial
01JWBYFE620JFGXNYV478VBSRX,45,0,5,1.0,3,0,53,4,5,1.0,asocial
01JWBYFE620JFGXNYV478VBSRX,45,1,5,1.0,2,0,10,1,5,1.0,asocial
01JWBYFE620JFGXNYV478VBSRX,45,2,5,1.0,1,0,6,2,5,1.0,asocial
01JWBYFE620JFGXNYV478VBSRX,45,3,5,1.0,2,0,53,6,5,1.0,asocial
01JWBYFE620JFGXNYV478VBSRX,45,4,5,1.0,1,0,7,1,5,1.0,asocial
01JWBYFE620JFGXNYV478VBSRX,45,5,5,1.0,7,0,56,1,5,1.0,asocial
01JWBYFE620JFGXNYV478VBSRX,45,6,5,1.0,4,2,56,7,5,1.0,asocial
01JWBYFE620JFGXNYV478VBSRX,45,7,5,1.0,1,0,8,2,5,1.0,asocial
01JWBYFE620JFGXNYV478VBSRX,45,8,5,1.0,1,1,108,12,5,1.0,asocial
01JWBYFE620JFGXNYV478VBSRX,45,9,5,1.0,16,2,35,6,5,1.0,asocial
01JWBYFE620JFGXNYV478VBSRX,46,0,5,0.0,3,0,54,4,5,1.0,asocial
01JWBYFE620JFGXNYV478VBSRX,46,1,5,0.0,2,0,10,1,5,1.0,asocial
01JWBYFE620JFGXNYV478VBSRX,46,2,5,0.0,1,0,6,2,5,1.0,asocial
01JWBYFE620JFGXNYV478VBSRX,46,3,5,0.0,2,0,54,6,5,1.0,asocial
01JWBYFE620JFGXNYV478VBSRX,46,4,5,0.0,1,0,7,1,5,1.0,asocial
01JWBYFE620JFGXNYV478VBSRX,46,5,5,0.0,8,0,60,1,5,1.0,asocial
01JWBYFE620JFGXNYV478VBSRX,46,6,5,0.0,4,2,58,7,5,1.0,asocial
01JWBYFE620JFGXNYV478VBSRX,46,7,5,0.0,1,0,8,2,5,1.0,asocial
01JWBYFE620JFGXNYV478VBSRX,46,8,5,0.0,1,1,110,12,5,1.0,asocial
01JWBYFE620JFGXNYV478VBSRX,46,9,5,0.0,16,2,35,6,5,1.0,asocial
01JWBYFE620JFGXNYV478VBSRX,47,0,0,1.0,3,0,55,4,5,0.0,asocial
01JWBYFE620JFGXNYV478VBSRX,47,1,0,1.0,2,0,10,1,5,0.0,asocial
01JWBYFE620JFGXNYV478VBSRX,47,2,0,1.0,1,0,6,2,5,0.0,asocial
01JWBYFE620JFGXNYV478VBSRX,47,3,0,1.0,2,0,55,6,5,0.0,asocial
01JWBYFE620JFGXNYV478VBSRX,47,4,0,1.0,1,0,7,1,5,0.0,asocial
01JWBYFE620JFGXNYV478VBSRX,47,5,0,1.0,8,1,63,2,5,0.0,asocial
01JWBYFE620JFGXNYV478VBSRX,47,6,0,1.0,4,2,59,7,5,0.0,asocial
01JWBYFE620JFGXNYV478VBSRX,47,7,0,1.0,1,0,8,2,5,0.0,asocial
01JWBYFE620JFGXNYV478VBSRX,47,8,0,1.0,1,1,112,12,5,0.0,asocial
01JWBYFE620JFGXNYV478VBSRX,47,9,0,1.0,16,2,36,6,5,0.0,asocial
01JWBYFE620JFGXNYV478VBSRX,48,0,0,1.0,4,0,57,4,0,1.0,asocial
01JWBYFE620JFGXNYV478VBSRX,48,1,0,1.0,2,0,10,1,0,1.0,asocial
01JWBYFE620JFGXNYV478VBSRX,48,2,0,1.0,1,0,7,2,0,1.0,asocial
01JWBYFE620JFGXNYV478VBSRX,48,3,0,1.0,2,0,56,6,0,1.0,asocial
01JWBYFE620JFGXNYV478VBSRX,48,4,0,1.0,1,0,7,1,0,1.0,asocial
01JWBYFE620JFGXNYV478VBSRX,48,5,0,1.0,8,1,65,2,0,1.0,asocial
01JWBYFE620JFGXNYV478VBSRX,48,6,0,1.0,4,2,60,7,0,1.0,asocial
01JWBYFE620JFGXNYV478VBSRX,48,7,0,1.0,1,0,8,2,0,1.0,asocial
01JWBYFE620JFGXNYV478VBSRX,48,8,0,1.0,1,1,114,12,0,1.0,asocial
01JWBYFE620JFGXNYV478VBSRX,48,9,0,1.0,16,2,36,7,0,1.0,asocial
01JWBYFE620JFGXNYV478VBSRX,49,0,0,1.0,5,0,59,4,0,1.0,asocial
01JWBYFE620JFGXNYV478VBSRX,49,1,0,1.0,2,0,10,1,0,1.0,asocial
01JWBYFE620JFGXNYV478VBSRX,49,2,0,1.0,1,0,7,2,0,1.0,asocial
01JWBYFE620JFGXNYV478VBSRX,49,3,0,1.0,2,0,57,6,0,1.0,asocial
01JWBYFE620JFGXNYV478VBSRX,49,4,0,1.0,1,0,8,1,0,1.0,asocial
01JWBYFE620JFGXNYV478VBSRX,49,5,0,1.0,8,1,67,2,0,1.0,asocial
01JWBYFE620JFGXNYV478VBSRX,49,6,0,1.0,4,2,62,7,0,1.0,asocial
01JWBYFE620JFGXNYV478VBSRX,49,7,0,1.0,1,0,8,2,0,1.0,asocial
01JWBYFE620JFGXNYV478VBSRX,49,8,0,1.0,1,1,116,12,0,1.0,asocial
01JWBYFE620JFGXNYV478VBSRX,49,9,0,1.0,16,2,36,7,0,1.0,asocial
01JWBYFE620JFGXNYV478VBSRX,50,0,0,1.0,6,0,62,4,0,1.0,asocial
01JWBYFE620JFGXNYV478VBSRX,50,1,0,1.0,2,0,10,1,0,1.0,asocial
01JWBYFE620JFGXNYV478VBSRX,50,2,0,1.0,1,0,7,2,0,1.0,asocial
01JWBYFE620JFGXNYV478VBSRX,50,3,0,1.0,2,0,58,6,0,1.0,asocial
01JWBYFE620JFGXNYV478VBSRX,50,4,0,1.0,1,0,8,1,0,1.0,asocial
01JWBYFE620JFGXNYV478VBSRX,50,5,0,1.0,8,1,69,2,0,1.0,asocial
01JWBYFE620JFGXNYV478VBSRX,50,6,0,1.0,4,2,64,7,0,1.0,asocial
01JWBYFE620JFGXNYV478VBSRX,50,7,0,1.0,1,0,8,2,0,1.0,asocial
01JWBYFE620JFGXNYV478VBSRX,50,8,0,1.0,1,1,118,12,0,1.0,asocial
01JWBYFE620JFGXNYV478VBSRX,50,9,0,1.0,16,2,36,7,0,1.0,asocial
01JWBYFE620JFGXNYV478VBSRX,51,0,0,1.0,7,0,64,4,0,1.0,asocial
01JWBYFE620JFGXNYV478VBSRX,51,1,0,1.0,2,0,10,1,0,1.0,asocial
01JWBYFE620JFGXNYV478VBSRX,51,2,0,1.0,1,0,7,2,0,1.0,asocial
01JWBYFE620JFGXNYV478VBSRX,51,3,0,1.0,2,0,59,6,0,1.0,asocial
01JWBYFE620JFGXNYV478VBSRX,51,4,0,1.0,1,0,8,1,0,1.0,asocial
01JWBYFE620JFGXNYV478VBSRX,51,5,0,1.0,8,1,72,2,0,1.0,asocial
01JWBYFE620JFGXNYV478VBSRX,51,6,0,1.0,4,2,65,7,0,1.0,asocial
01JWBYFE620JFGXNYV478VBSRX,51,7,0,1.0,1,0,8,3,0,1.0,asocial
01JWBYFE620JFGXNYV478VBSRX,51,8,0,1.0,1,1,120,12,0,1.0,asocial
01JWBYFE620JFGXNYV478VBSRX,51,9,0,1.0,16,2,36,7,0,1.0,asocial
01JWBYFMWCDR0KH95ZSTBYG6H4,1,0,9,1.0,0,0,0,0,-1,,asocial
01JWBYFMWCDR0KH95ZSTBYG6H4,1,1,9,1.0,0,0,0,0,-1,,asocial
01JWBYFMWCDR0KH95ZSTBYG6H4,1,2,9,1.0,0,0,0,0,-1,,asocial
01JWBYFMWCDR0KH95ZSTBYG6H4,1,3,9,1.0,0,0,0,0,-1,,asocial
01JWBYFMWCDR0KH95ZSTBYG6H4,1,4,9,1.0,0,0,0,0,-1,,asocial
01JWBYFMWCDR0KH95ZSTBYG6H4,1,5,9,1.0,0,0,0,0,-1,,asocial
01JWBYFMWCDR0KH95ZSTBYG6H4,1,6,9,1.0,0,0,0,0,-1,,asocial
01JWBYFMWCDR0KH95ZSTBYG6H4,1,7,9,1.0,0,0,0,0,-1,,asocial
01JWBYFMWCDR0KH95ZSTBYG6H4,1,8,9,1.0,0,0,0,0,-1,,asocial
01JWBYFMWCDR0KH95ZSTBYG6H4,1,9,9,1.0,0,0,0,0,-1,,asocial
01JWBYFMWCDR0KH95ZSTBYG6H4,2,0,9,1.0,0,0,1,0,9,1.0,asocial
01JWBYFMWCDR0KH95ZSTBYG6H4,2,1,9,1.0,0,0,1,0,9,1.0,asocial
01JWBYFMWCDR0KH95ZSTBYG6H4,2,2,9,1.0,0,0,0,1,9,1.0,asocial
01JWBYFMWCDR0KH95ZSTBYG6H4,2,3,9,1.0,0,0,1,0,9,1.0,asocial
01JWBYFMWCDR0KH95ZSTBYG6H4,2,4,9,1.0,0,0,1,0,9,1.0,asocial
01JWBYFMWCDR0KH95ZSTBYG6H4,2,5,9,1.0,0,0,0,0,9,1.0,asocial
01JWBYFMWCDR0KH95ZSTBYG6H4,2,6,9,1.0,0,0,1,0,9,1.0,asocial
01JWBYFMWCDR0KH95ZSTBYG6H4,2,7,9,1.0,0,0,1,0,9,1.0,asocial
01JWBYFMWCDR0KH95ZSTBYG6H4,2,8,9,1.0,0,0,0,0,9,1.0,asocial
01JWBYFMWCDR0KH95ZSTBYG6H4,2,9,9,1.0,1,0,1,0,9,1.0,asocial
01JWBYFMWCDR0KH95ZSTBYG6H4,3,0,9,0.0,0,0,3,0,9,1.0,asocial
01JWBYFMWCDR0KH95ZSTBYG6H4,3,1,9,0.0,0,0,1,1,9,1.0,asocial
01JWBYFMWCDR0KH95ZSTBYG6H4,3,2,9,0.0,0,0,0,1,9,1.0,asocial
01JWBYFMWCDR0KH95ZSTBYG6H4,3,3,9,0.0,0,0,2,0,9,1.0,asocial
01JWBYFMWCDR0KH95ZSTBYG6H4,3,4,9,0.0,0,0,2,0,9,1.0,asocial
01JWBYFMWCDR0KH95ZSTBYG6H4,3,5,9,0.0,0,0,0,0,9,1.0,asocial
01JWBYFMWCDR0KH95ZSTBYG6H4,3,6,9,0.0,0,0,1,0,9,1.0,asocial
01JWBYFMWCDR0KH95ZSTBYG6H4,3,7,9,0.0,0,0,1,0,9,1.0,asocial
01JWBYFMWCDR0KH95ZSTBYG6H4,3,8,9,0.0,0,0,2,0,9,1.0,asocial
01JWBYFMWCDR0KH95ZSTBYG6H4,3,9,9,0.0,2,0,3,0,9,1.0,asocial
01JWBYFMWCDR0KH95ZSTBYG6H4,4,0,9,1.0,0,0,4,0,9,0.0,asocial
01JWBYFMWCDR0KH95ZSTBYG6H4,4,1,9,1.0,0,0,1,1,9,0.0,asocial
01JWBYFMWCDR0KH95ZSTBYG6H4,4,2,9,1.0,0,0,1,1,9,0.0,asocial
01JWBYFMWCDR0KH95ZSTBYG6H4,4,3,9,1.0,0,0,3,0,9,0.0,asocial
01JWBYFMWCDR0KH95ZSTBYG6H4,4,4,9,1.0,0,0,2,0,9,0.0,asocial
01JWBYFMWCDR0KH95ZSTBYG6H4,4,5,9,1.0,0,0,0,0,9,0.0,asocial
01JWBYFMWCDR0KH95ZSTBYG6H4,4,6,9,1.0,0,0,4,0,9,0.0,asocial
01JWBYFMWCDR0KH95ZSTBYG6H4,4,7,9,1.0,0,0,1,0,9,0.0,asocial
01JWBYFMWCDR0KH95ZSTBYG6H4,4,8,9,1.0,0,0,4,0,9,0.0,asocial
01JWBYFMWCDR0KH95ZSTBYG6H4,4,9,9,1.0,2,1,3,1,9,0.0,asocial
01JWBYFMWCDR0KH95ZSTBYG6H4,5,0,9,1.0,0,0,6,0,9,1.0,asocial
01JWBYFMWCDR0KH95ZSTBYG6H4,5,1,9,1.0,0,0,1,1,9,1.0,asocial
01JWBYFMWCDR0KH95ZSTBYG6H4,5,2,9,1.0,0,0,1,1,9,1.0,asocial
01JWBYFMWCDR0KH95ZSTBYG6H4,5,3,9,1.0,0,0,4,0,9,1.0,asocial
01JWBYFMWCDR0KH95ZSTBYG6H4,5,4,9,1.0,0,0,2,0,9,1.0,asocial
01JWBYFMWCDR0KH95ZSTBYG6H4,5,5,9,1.0,0,0,2,0,9,1.0,asocial
01JWBYFMWCDR0KH95ZSTBYG6H4,5,6,9,1.0,0,0,6,0,9,1.0,asocial
01JWBYFMWCDR0KH95ZSTBYG6H4,5,7,9,1.0,0,0,1,0,9,1.0,asocial
01JWBYFMWCDR0KH95ZSTBYG6H4,5,8,9,1.0,0,0,6,0,9,1.0,asocial
01JWBYFMWCDR0KH95ZSTBYG6H4,5,9,9,1.0,3,1,4,1,9,1.0,asocial
01JWBYFMWCDR0KH95ZSTBYG6H4,6,0,9,1.0,0,0,8,0,9,1.0,asocial
01JWBYFMWCDR0KH95ZSTBYG6H4,6,1,9,1.0,0,0,1,1,9,1.0,asocial
01JWBYFMWCDR0KH95ZSTBYG6H4,6,2,9,1.0,0,0,1,1,9,1.0,asocial
01JWBYFMWCDR0KH95ZSTBYG6H4,6,3,9,1.0,0,0,5,0,9,1.0,asocial
01JWBYFMWCDR0KH95ZSTBYG6H4,6,4,9,1.0,0,0,2,0,9,1.0,asocial
01JWBYFMWCDR0KH95ZSTBYG6H4,6,5,9,1.0,0,0,3,0,9,1.0,asocial
01JWBYFMWCDR0KH95ZSTBYG6H4,6,6,9,1.0,0,0,8,0,9,1.0,asocial
01JWBYFMWCDR0KH95ZSTBYG6H4,6,7,9,1.0,0,0,1,0,9,1.0,asocial
01JWBYFMWCDR0KH95ZSTBYG6H4,6,8,9,1.0,0,0,7,1,9,1.0,asocial
01JWBYFMWCDR0KH95ZSTBYG6H4,6,9,9,1.0,4,1,6,1,9,1.0,asocial
01JWBYFMWCDR0KH95ZSTBYG6H4,7,0,9,0.0,0,0,10,0,9,1.0,asocial
01JWBYFMWCDR0KH95ZSTBYG6H4,7,1,9,0.0,0,0,1,1,9,1.0,asocial
01JWBYFMWCDR0KH95ZSTBYG6H4,7,2,9,0.0,0,0,2,1,9,1.0,asocial
01JWBYFMWCDR0KH95ZSTBYG6H4,7,3,9,0.0,0,0,6,0,9,1.0,asocial
01JWBYFMWCDR0KH95ZSTBYG6H4,7,4,9,0.0,0,0,3,0,9,1.0,asocial
01JWBYFMWCDR0KH95ZSTBYG6H4,7,5,9,0.0,0,0,4,0,9,1.0,asocial
01JWBYFMWCDR0KH95ZSTBYG6H4,7,6,9,0.0,0,0,9,0,9,1.0,asocial
01JWBYFMWCDR0KH95ZSTBYG6H4,7,7,9,0.0,0,0,1,0,9,1.0,asocial
01JWBYFMWCDR0KH95ZSTBYG6H4,7,8,9,0.0,0,0,9,1,9,1.0,asocial
01JWBYFMWCDR0KH95ZSTBYG6H4,7,9,9,0.0,5,1,7,1,9,1.0,asocial
01JWBYFMWCDR0KH95ZSTBYG6H4,8,0,9,0.0,0,0,13,0,9,0.0,asocial
01JWBYFMWCDR0KH95ZSTBYG6H4,8,1,9,0.0,0,0,1,1,9,0.0,asocial
01JWBYFMWCDR0KH95ZSTBYG6H4,8,2,9,0.0,0,0,2,1,9,0.0,asocial
01JWBYFMWCDR0KH95ZSTBYG6H4,8,3,9,0.0,0,0,7,0,9,0.0,asocial
01JWBYFMWCDR0KH95ZSTBYG6H4,8,4,9,0.0,0,0,3,0,9,0.0,asocial
01JWBYFMWCDR0KH95ZSTBYG6H4,8,5,9,0.0,0,0,5,0,9,0.0,asocial
01JWBYFMWCDR0KH95ZSTBYG6H4,8,6,9,0.0,0,0,10,0,9,0.0,asocial
01JWBYFMWCDR0KH95ZSTBYG6H4,8,7,9,0.0,0,0,2,0,9,0.0,asocial
01JWBYFMWCDR0KH95ZSTBYG6H4,8,8,9,0.0,0,0,11,1,9,0.0,asocial
01JWBYFMWCDR0KH95ZSTBYG6H4,8,9,9,0.0,5,2,7,2,9,0.0,asocial
01JWBYFMWCDR0KH95ZSTBYG6H4,9,0,9,0.0,0,0,15,0,9,0.0,asocial
01JWBYFMWCDR0KH95ZSTBYG6H4,9,1,9,0.0,0,0,1,1,9,0.0,asocial
01JWBYFMWCDR0KH95ZSTBYG6H4,9,2,9,0.0,0,0,2,1,9,0.0,asocial
01JWBYFMWCDR0KH95ZSTBYG6H4,9,3,9,0.0,0,0,8,1,9,0.0,asocial
01JWBYFMWCDR0KH95ZSTBYG6H4,9,4,9,0.0,0,0,3,0,9,0.0,asocial
01JWBYFMWCDR0KH95ZSTBYG6H4,9,5,9,0.0,0,0,6,0,9,0.0,asocial
01JWBYFMWCDR0KH95ZSTBYG6H4,9,6,9,0.0,0,0,11,0,9,0.0,asocial
01JWBYFMWCDR0KH95ZSTBYG6H4,9,7,9,0.0,0,0,2,0,9,0.0,asocial
01JWBYFMWCDR0KH95ZSTBYG6H4,9,8,9,0.0,0,0,12,2,9,0.0,asocial
01JWBYFMWCDR0KH95ZSTBYG6H4,9,9,9,0.0,5,3,8,3,9,0.0,asocial
01JWBYFMWCDR0KH95ZSTBYG6H4,10,0,8,1.0,0,0,16,0,9,0.0,asocial
01JWBYFMWCDR0KH95ZSTBYG6H4,10,1,8,1.0,0,0,2,1,9,0.0,asocial
01JWBYFMWCDR0KH95ZSTBYG6H4,10,2,8,1.0,0,0,2,1,9,0.0,asocial
01JWBYFMWCDR0KH95ZSTBYG6H4,10,3,8,1.0,0,0,9,1,9,0.0,asocial
01JWBYFMWCDR0KH95ZSTBYG6H4,10,4,8,1.0,0,0,3,0,9,0.0,asocial
01JWBYFMWCDR0KH95ZSTBYG6H4,10,5,8,1.0,0,0,8,0,9,0.0,asocial
01JWBYFMWCDR0KH95ZSTBYG6H4,10,6,8,1.0,0,0,13,0,9,0.0,asocial
01JWBYFMWCDR0KH95ZSTBYG6H4,10,7,8,1.0,0,0,2,0,9,0.0,asocial
01JWBYFMWCDR0KH95ZSTBYG6H4,10,8,8,1.0,0,0,14,2,9,0.0,asocial
01JWBYFMWCDR0KH95ZSTBYG6H4,10,9,8,1.0,5,4,8,4,9,0.0,asocial
01JWBYFMWCDR0KH95ZSTBYG6H4,11,0,8,1.0,0,0,17,0,8,1.0,asocial
01JWBYFMWCDR0KH95ZSTBYG6H4,11,1,8,1.0,0,0,2,1,8,1.0,asocial
01JWBYFMWCDR0KH95ZSTBYG6H4,11,2,8,1.0,0,0,2,1,8,1.0,asocial
01JWBYFMWCDR0KH95ZSTBYG6H4,11,3,8,1.0,0,0,10,1,8,1.0,asocial
01JWBYFMWCDR0KH95ZSTBYG6H4,11,4,8,1.0,0,0,3,0,8,1.0,asocial
01JWBYFMWCDR0KH95ZSTBYG6H4,11,5,8,1.0,0,0,10,0,8,1.0,asocial
01JWBYFMWCDR0KH95ZSTBYG6H4,11,6,8,1.0,0,0,14,0,8,1.0,asocial
01JWBYFMWCDR0KH95ZSTBYG6H4,11,7,8,1.0,0,0,2,0,8,1.0,asocial
01JWBYFMWCDR0KH95ZSTBYG6H4,11,8,8,1.0,1,0,17,2,8,1.0,asocial
01JWBYFMWCDR0KH95ZSTBYG6H4,11,9,8,1.0,5,4,10,4,8,1.0,asocial
01JWBYFMWCDR0KH95ZSTBYG6H4,12,0,8,0.0,0,0,18,0,8,1.0,asocial
01JWBYFMWCDR0KH95ZSTBYG6H4,12,1,8,0.0,0,0,2,1,8,1.0,asocial
01JWBYFMWCDR0KH95ZSTBYG6H4,12,2,8,0.0,0,0,2,1,8,1.0,asocial
01JWBYFMWCDR0KH95ZSTBYG6H4,12,3,8,0.0,0,0,11,2,8,1.0,asocial
01JWBYFMWCDR0KH95ZSTBYG6H4,12,4,8,0.0,0,0,4,0,8,1.0,asocial
01JWBYFMWCDR0KH95ZSTBYG6H4,12,5,8,0.0,0,0,11,0,8,1.0,asocial
01JWBYFMWCDR0KH95ZSTBYG6H4,12,6,8,0.0,0,0,15,0,8,1.0,asocial
01JWBYFMWCDR0KH95ZSTBYG6H4,12,7,8,0.0,0,0,2,0,8,1.0,asocial
01JWBYFMWCDR0KH95ZSTBYG6H4,12,8,8,0.0,2,0,20,2,8,1.0,asocial
01JWBYFMWCDR0KH95ZSTBYG6H4,12,9,8,0.0,5,4,11,4,8,1.0,asocial
01JWBYFMWCDR0KH95ZSTBYG6H4,13,0,8,1.0,0,0,19,0,8,0.0,asocial
01JWBYFMWCDR0KH95ZSTBYG6H4,13,1,8,1.0,0,0,2,1,8,0.0,asocial
01JWBYFMWCDR0KH95ZSTBYG6H4,13,2,8,1.0,0,0,2,1,8,0.0,asocial
01JWBYFMWCDR0KH95ZSTBYG6H4,13,3,8,1.0,0,0,12,2,8,0.0,asocial
01JWBYFMWCDR0KH95ZSTBYG6H4,13,4,8,1.0,0,0,4,0,8,0.0,asocial
01JWBYFMWCDR0KH95ZSTBYG6H4,13,5,8,1.0,0,0,12,0,8,0.0,asocial
01JWBYFMWCDR0KH95ZSTBYG6H4,13,6,8,1.0,0,0,17,0,8,0.0,asocial
01JWBYFMWCDR0KH95ZSTBYG6H4,13,7,8,1.0,0,0,3,0,8,0.0,asocial
01JWBYFMWCDR0KH95ZSTBYG6H4,13,8,8,1.0,2,1,22,4,8,0.0,asocial
01JWBYFMWCDR0KH95ZSTBYG6H4,13,9,8,1.0,5,4,11,4,8,0.0,asocial
01JWBYFMWCDR0KH95ZSTBYG6H4,14,0,8,0.0,0,0,20,0,8,1.0,asocial
01JWBYFMWCDR0KH95ZSTBYG6H4,14,1,8,0.0,0,0,3,1,8,1.0,asocial
01JWBYFMWCDR0KH95ZSTBYG6H4,14,2,8,0.0,0,0,2,1,8,1.0,asocial
01JWBYFMWCDR0KH95ZSTBYG6H4,14,3,8,0.0,0,0,13,2,8,1.0,asocial
01JWBYFMWCDR0KH95ZSTBYG6H4,14,4,8,0.0,0,0,4,0,8,1.0,asocial
01JWBYFMWCDR0KH95ZSTBYG6H4,14,5,8,0.0,0,0,13,0,8,1.0,asocial
01JWBYFMWCDR0KH95ZSTBYG6H4,14,6,8,0.0,0,0,18,0,8,1.0,asocial
01JWBYFMWCDR0KH95ZSTBYG6H4,14,7,8,0.0,0,0,3,0,8,1.0,asocial
01JWBYFMWCDR0KH95ZSTBYG6H4,14,8,8,0.0,3,1,25,4,8,1.0,asocial
01JWBYFMWCDR0KH95ZSTBYG6H4,14,9,8,0.0,5,4,12,4,8,1.0,asocial
01JWBYFMWCDR0KH95ZSTBYG6H4,15,0,8,1.0,0,0,21,0,8,0.0,asocial
01JWBYFMWCDR0KH95ZSTBYG6H4,15,1,8,1.0,0,0,3,1,8,0.0,asocial
01JWBYFMWCDR0KH95ZSTBYG6H4,15,2,8,1.0,0,0,2,1,8,0.0,asocial
01JWBYFMWCDR0KH95ZSTBYG6H4,15,3,8,1.0,0,0,14,2,8,0.0,asocial
01JWBYFMWCDR0KH95ZSTBYG6H4,15,4,8,1.0,0,0,4,0,8,0.0,asocial
01JWBYFMWCDR0KH95ZSTBYG6H4,15,5,8,1.0,0,0,14,0,8,0.0,asocial
01JWBYFMWCDR0KH95ZSTBYG6H4,15,6,8,1.0,0,0,21,1,8,0.0,asocial
01JWBYFMWCDR0KH95ZSTBYG6H4,15,7,8,1.0,0,0,3,0,8,0.0,asocial
01JWBYFMWCDR0KH95ZSTBYG6H4,15,8,8,1.0,3,2,27,5,8,0.0,asocial
01JWBYFMWCDR0KH95ZSTBYG6H4,15,9,8,1.0,5,4,12,4,8,0.0,asocial
01JWBYFMWCDR0KH95ZSTBYG6H4,16,0,8,1.0,0,0,23,0,8,1.0,asocial
01JWBYFMWCDR0KH95ZSTBYG6H4,16,1,8,1.0,0,0,3,1,8,1.0,asocial
01JWBYFMWCDR0KH95ZSTBYG6H4,16,2,8,1.0,0,0,3,1,8,1.0,asocial
01JWBYFMWCDR0KH95ZSTBYG6H4,16,3,8,1.0,0,0,15,2,8,1.0,asocial
01JWBYFMWCDR0KH95ZSTBYG6H4,16,4,8,1.0,0,0,4,0,8,1.0,asocial
01JWBYFMWCDR0KH95ZSTBYG6H4,16,5,8,1.0,0,0,15,0,8,1.0,asocial
01JWBYFMWCDR0KH95ZSTBYG6H4,16,6,8,1.0,0,0,22,2,8,1.0,asocial
01JWBYFMWCDR0KH95ZSTBYG6H4,16,7,8,1.0,0,0,3,0,8,1.0,asocial
01JWBYFMWCDR0KH95ZSTBYG6H4,16,8,8,1.0,4,2,30,5,8,1.0,asocial
01JWBYFMWCDR0KH95ZSTBYG6H4,16,9,8,1.0,5,4,12,4,8,1.0,asocial
01JWBYFMWCDR0KH95ZSTBYG6H4,17,0,8,1.0,0,0,24,0,8,1.0,asocial
01JWBYFMWCDR0KH95ZSTBYG6H4,17,1,8,1.0,0,0,3,1,8,1.0,asocial
01JWBYFMWCDR0KH95ZSTBYG6H4,17,2,8,1.0,0,0,3,1,8,1.0,asocial
01JWBYFMWCDR0KH95ZSTBYG6H4,17,3,8,1.0,0,0,16,2,8,1.0,asocial
01JWBYFMWCDR0KH95ZSTBYG6H4,17,4,8,1.0,0,0,4,0,8,1.0,asocial
01JWBYFMWCDR0KH95ZSTBYG6H4,17,5,8,1.0,0,0,16,0,8,1.0,asocial
01JWBYFMWCDR0KH95ZSTBYG6H4,17,6,8,1.0,0,0,24,2,8,1.0,asocial
01JWBYFMWCDR0KH95ZSTBYG6H4,17,7,8,1.0,0,0,3,1,8,1.0,asocial
01JWBYFMWCDR0KH95ZSTBYG6H4,17,8,8,1.0,5,2,33,5,8,1.0,asocial
01JWBYFMWCDR0KH95ZSTBYG6H4,17,9,8,1.0,5,4,13,4,8,1.0,asocial
01JWBYFMWCDR0KH95ZSTBYG6H4,18,0,8,1.0,0,0,25,1,8,1.0,asocial
01JWBYFMWCDR0KH95ZSTBYG6H4,18,1,8,1.0,0,0,3,1,8,1.0,asocial
01JWBYFMWCDR0KH95ZSTBYG6H4,18,2,8,1.0,0,0,3,1,8,1.0,asocial
01JWBYFMWCDR0KH95ZSTBYG6H4,18,3,8,1.0,0,0,16,3,8,1.0,asocial
01JWBYFMWCDR0KH95ZSTBYG6H4,18,4,8,1.0,0,0,4,0,8,1.0,asocial
01JWBYFMWCDR0KH95ZSTBYG6H4,18,5,8,1.0,0,0,17,0,8,1.0,asocial
01JWBYFMWCDR0KH95ZSTBYG6H4,18,6,8,1.0,0,0,26,3,8,1.0,asocial
01JWBYFMWCDR0KH95ZSTBYG6H4,18,7,8,1.0,0,0,3,1,8,1.0,asocial
01JWBYFMWCDR0KH95ZSTBYG6H4,18,8,8,1.0,6,2,36,5,8,1.0,asocial
01JWBYFMWCDR0KH95ZSTBYG6H4,18,9,8,1.0,5,4,13,4,8,1.0,asocial
01JWBYFMWCDR0KH95ZSTBYG6H4,19,0,8,1.0,0,0,26,1,8,1.0,asocial
01JWBYFMWCDR0KH95ZSTBYG6H4,19,1,8,1.0,0,0,3,1,8,1.0,asocial
01JWBYFMWCDR0KH95ZSTBYG6H4,19,2,8,1.0,0,0,3,1,8,1.0,asocial
01JWBYFMWCDR0KH95ZSTBYG6H4,19,3,8,1.0,0,0,17,3,8,1.0,asocial
01JWBYFMWCDR0KH95ZSTBYG6H4,19,4,8,1.0,0,0,4,0,8,1.0,asocial
01JWBYFMWCDR0KH95ZSTBYG6H4,19,5,8,1.0,0,0,18,0,8,1.0,asocial
01JWBYFMWCDR0KH95ZSTBYG6H4,19,6,8,1.0,0,0,28,3,8,1.0,asocial
01JWBYFMWCDR0KH95ZSTBYG6H4,19,7,8,1.0,0,0,3,1,8,1.0,asocial
01JWBYFMWCDR0KH95ZSTBYG6H4,19,8,8,1.0,7,2,38,5,8,1.0,asocial
01JWBYFMWCDR0KH95ZSTBYG6H4,19,9,8,1.0,5,4,15,4,8,1.0,asocial
01JWBYFMWCDR0KH95ZSTBYG6H4,20,0,8,1.0,0,0,27,2,8,1.0,asocial
01JWBYFMWCDR0KH95ZSTBYG6H4,20,1,8,1.0,0,0,3,1,8,1.0,asocial
01JWBYFMWCDR0KH95ZSTBYG6H4,20,2,8,1.0,0,0,4,1,8,1.0,asocial
01JWBYFMWCDR0KH95ZSTBYG6H4,20,3,8,1.0,0,0,18,3,8,1.0,asocial
01JWBYFMWCDR0KH95ZSTBYG6H4,20,4,8,1.0,0,0,4,0,8,1.0,asocial
01JWBYFMWCDR0KH95ZSTBYG6H4,20,5,8,1.0,0,0,20,0,8,1.0,asocial
01JWBYFMWCDR0KH95ZSTBYG6H4,20,6,8,1.0,0,0,29,3,8,1.0,asocial
01JWBYFMWCDR0KH95ZSTBYG6H4,20,7,8,1.0,0,0,3,1,8,1.0,asocial
01JWBYFMWCDR0KH95ZSTBYG6H4,20,8,8,1.0,8,2,41,5,8,1.0,asocial
01JWBYFMWCDR0KH95ZSTBYG6H4,20,9,8,1.0,5,4,15,4,8,1.0,asocial
01JWBYFMWCDR0KH95ZSTBYG6H4,21,0,8,1.0,0,0,28,2,8,1.0,asocial
01JWBYFMWCDR0KH95ZSTBYG6H4,21,1,8,1.0,0,0,3,1,8,1.0,asocial
01JWBYFMWCDR0KH95ZSTBYG6H4,21,2,8,1.0,0,0,5,1,8,1.0,asocial
01JWBYFMWCDR0KH95ZSTBYG6H4,21,3,8,1.0,0,0,19,3,8,1.0,asocial
01JWBYFMWCDR0KH95ZSTBYG6H4,21,4,8,1.0,0,0,5,0,8,1.0,asocial
01JWBYFMWCDR0KH95ZSTBYG6H4,21,5,8,1.0,0,0,21,0,8,1.0,asocial
01JWBYFMWCDR0KH95ZSTBYG6H4,21,6,8,1.0,0,0,30,3,8,1.0,asocial
01JWBYFMWCDR0KH95ZSTBYG6H4,21,7,8,1.0,0,0,3,1,8,1.0,asocial
01JWBYFMWCDR0KH95ZSTBYG6H4,21,8,8,1.0,9,2,44,5,8,1.0,asocial
01JWBYFMWCDR0KH95ZSTBYG6H4,21,9,8,1.0,5,4,16,4,8,1.0,asocial
01JWBYFMWCDR0KH95ZSTBYG6H4,22,0,8,1.0,0,0,29,2,8,1.0,asocial
01JWBYFMWCDR0KH95ZSTBYG6H4,22,1,8,1.0,0,0,3,1,8,1.0,asocial
01JWBYFMWCDR0KH95ZSTBYG6H4,22,2,8,1.0,0,0,5,1,8,1.0,asocial
01JWBYFMWCDR0KH95ZSTBYG6H4,22,3,8,1.0,0,0,20,3,8,1.0,asocial
01JWBYFMWCDR0KH95ZSTBYG6H4,22,4,8,1.0,0,0,5,0,8,1.0,asocial
01JWBYFMWCDR0KH95ZSTBYG6H4,22,5,8,1.0,0,0,23,0,8,1.0,asocial
01JWBYFMWCDR0KH95ZSTBYG6H4,22,6,8,1.0,0,0,31,3,8,1.0,asocial
01JWBYFMWCDR0KH95ZSTBYG6H4,22,7,8,1.0,0,0,3,1,8,1.0,asocial
01JWBYFMWCDR0KH95ZSTBYG6H4,22,8,8,1.0,10,2,48,5,8,1.0,asocial
01JWBYFMWCDR0KH95ZSTBYG6H4,22,9,8,1.0,5,4,17,4,8,1.0,asocial
01JWBYFMWCDR0KH95ZSTBYG6H4,23,0,8,1.0,0,0,30,2,8,1.0,asocial
01JWBYFMWCDR0KH95ZSTBYG6H4,23,1,8,1.0,0,0,4,1,8,1.0,asocial
01JWBYFMWCDR0KH95ZSTBYG6H4,23,2,8,1.0,0,0,5,1,8,1.0,asocial
01JWBYFMWCDR0KH95ZSTBYG6H4,23,3,8,1.0,0,0,21,3,8,1.0,asocial
01JWBYFMWCDR0KH95ZSTBYG6H4,23,4,8,1.0,0,0,5,0,8,1.0,asocial
01JWBYFMWCDR0KH95ZSTBYG6H4,23,5,8,1.0,0,0,26,0,8,1.0,asocial
01JWBYFMWCDR0KH95ZSTBYG6H4,23,6,8,1.0,0,0,32,3,8,1.0,asocial
01JWBYFMWCDR0KH95ZSTBYG6H4,23,7,8,1.0,0,0,3,1,8,1.0,asocial
01JWBYFMWCDR0KH95ZSTBYG6H4,23,8,8,1.0,11,2,51,5,8,1.0,asocial
01JWBYFMWCDR0KH95ZSTBYG6H4,23,9,8,1.0,5,4,17,4,8,1.0,asocial
01JWBYFMWCDR0KH95ZSTBYG6H4,24,0,8,1.0,0,0,31,2,8,1.0,asocial
01JWBYFMWCDR0KH95ZSTBYG6H4,24,1,8,1.0,0,0,5,1,8,1.0,asocial
01JWBYFMWCDR0KH95ZSTBYG6H4,24,2,8,1.0,0,0,5,2,8,1.0,asocial
01JWBYFMWCDR0KH95ZSTBYG6H4,24,3,8,1.0,0,0,22,3,8,1.0,asocial
01JWBYFMWCDR0KH95ZSTBYG6H4,24,4,8,1.0,0,0,5,0,8,1.0,asocial
01JWBYFMWCDR0KH95ZSTBYG6H4,24,5,8,1.0,0,0,27,0,8,1.0,asocial
01JWBYFMWCDR0KH95ZSTBYG6H4,24,6,8,1.0,0,0,34,3,8,1.0,asocial
01JWBYFMWCDR0KH95ZSTBYG6H4,24,7,8,1.0,0,0,3,1,8,1.0,asocial
01JWBYFMWCDR0KH95ZSTBYG6H4,24,8,8,1.0,12,2,54,5,8,1.0,asocial
01JWBYFMWCDR0KH95ZSTBYG6H4,24,9,8,1.0,5,4,17,4,8,1.0,asocial
01JWBYFMWCDR0KH95ZSTBYG6H4,25,0,8,1.0,0,0,32,2,8,1.0,asocial
01JWBYFMWCDR0KH95ZSTBYG6H4,25,1,8,1.0,0,0,5,1,8,1.0,asocial
01JWBYFMWCDR0KH95ZSTBYG6H4,25,2,8,1.0,0,0,5,2,8,1.0,asocial
01JWBYFMWCDR0KH95ZSTBYG6H4,25,3,8,1.0,0,0,23,3,8,1.0,asocial
01JWBYFMWCDR0KH95ZSTBYG6H4,25,4,8,1.0,0,0,5,0,8,1.0,asocial
01JWBYFMWCDR0KH95ZSTBYG6H4,25,5,8,1.0,0,0,28,0,8,1.0,asocial
01JWBYFMWCDR0KH95ZSTBYG6H4,25,6,8,1.0,0,0,36,3,8,1.0,asocial
01JWBYFMWCDR0KH95ZSTBYG6H4,25,7,8,1.0,0,0,4,1,8,1.0,asocial
01JWBYFMWCDR0KH95ZSTBYG6H4,25,8,8,1.0,13,2,57,5,8,1.0,asocial
01JWBYFMWCDR0KH95ZSTBYG6H4,25,9,8,1.0,5,4,18,4,8,1.0,asocial
01JWBYFMWCDR0KH95ZSTBYG6H4,26,0,8,1.0,0,0,33,2,8,1.0,asocial
01JWBYFMWCDR0KH95ZSTBYG6H4,26,1,8,1.0,0,0,5,1,8,1.0,asocial
01JWBYFMWCDR0KH95ZSTBYG6H4,26,2,8,1.0,0,0,5,2,8,1.0,asocial
01JWBYFMWCDR0KH95ZSTBYG6H4,26,3,8,1.0,0,0,26,3,8,1.0,asocial
01JWBYFMWCDR0KH95ZSTBYG6H4,26,4,8,1.0,0,0,5,0,8,1.0,asocial
01JWBYFMWCDR0KH95ZSTBYG6H4,26,5,8,1.0,0,0,29,0,8,1.0,asocial
01JWBYFMWCDR0KH95ZSTBYG6H4,26,6,8,1.0,0,0,38,3,8,1.0,asocial
01JWBYFMWCDR0KH95ZSTBYG6H4,26,7,8,1.0,0,0,4,1,8,1.0,asocial
01JWBYFMWCDR0KH95ZSTBYG6H4,26,8,8,1.0,14,2,60,5,8,1.0,asocial
01JWBYFMWCDR0KH95ZSTBYG6H4,26,9,8,1.0,5,4,18,4,8,1.0,asocial
01JWBYFMWCDR0KH95ZSTBYG6H4,27,0,8,1.0,0,0,34,2,8,1.0,asocial
01JWBYFMWCDR0KH95ZSTBYG6H4,27,1,8,1.0,0,0,5,1,8,1.0,asocial
01JWBYFMWCDR0KH95ZSTBYG6H4,27,2,8,1.0,0,0,5,2,8,1.0,asocial
01JWBYFMWCDR0KH95ZSTBYG6H4,27,3,8,1.0,0,0,28,3,8,1.0,asocial
01JWBYFMWCDR0KH95ZSTBYG6H4,27,4,8,1.0,0,0,5,0,8,1.0,asocial
01JWBYFMWCDR0KH95ZSTBYG6H4,27,5,8,1.0,0,0,30,0,8,1.0,asocial
01JWBYFMWCDR0KH95ZSTBYG6H4,27,6,8,1.0,0,0,39,3,8,1.0,asocial
01JWBYFMWCDR0KH95ZSTBYG6H4,27,7,8,1.0,0,0,4,1,8,1.0,asocial
01JWBYFMWCDR0KH95ZSTBYG6H4,27,8,8,1.0,15,2,63,6,8,1.0,asocial
01JWBYFMWCDR0KH95ZSTBYG6H4,27,9,8,1.0,5,4,19,4,8,1.0,asocial
01JWBYFMWCDR0KH95ZSTBYG6H4,28,0,8,1.0,0,0,35,2,8,1.0,asocial
01JWBYFMWCDR0KH95ZSTBYG6H4,28,1,8,1.0,0,0,5,1,8,1.0,asocial
01JWBYFMWCDR0KH95ZSTBYG6H4,28,2,8,1.0,0,0,5,2,8,1.0,asocial
01JWBYFMWCDR0KH95ZSTBYG6H4,28,3,8,1.0,0,0,29,3,8,1.0,asocial
01JWBYFMWCDR0KH95ZSTBYG6H4,28,4,8,1.0,0,0,5,0,8,1.0,asocial
01JWBYFMWCDR0KH95ZSTBYG6H4,28,5,8,1.0,0,0,32,0,8,1.0,asocial
01JWBYFMWCDR0KH95ZSTBYG6H4,28,6,8,1.0,0,0,40,3,8,1.0,asocial
01JWBYFMWCDR0KH95ZSTBYG6H4,28,7,8,1.0,0,0,4,1,8,1.0,asocial
01JWBYFMWCDR0KH95ZSTBYG6H4,28,8,8,1.0,16,2,66,6,8,1.0,asocial
01JWBYFMWCDR0KH95ZSTBYG6H4,28,9,8,1.0,5,4,21,4,8,1.0,asocial
01JWBYFMWCDR0KH95ZSTBYG6H4,29,0,8,0.0,0,0,36,2,8,1.0,asocial
01JWBYFMWCDR0KH95ZSTBYG6H4,29,1,8,0.0,0,0,5,1,8,1.0,asocial
01JWBYFMWCDR0KH95ZSTBYG6H4,29,2,8,0.0,0,0,5,2,8,1.0,asocial
01JWBYFMWCDR0KH95ZSTBYG6H4,29,3,8,0.0,0,0,30,3,8,1.0,asocial
01JWBYFMWCDR0KH95ZSTBYG6H4,29,4,8,0.0,0,0,5,0,8,1.0,asocial
01JWBYFMWCDR0KH95ZSTBYG6H4,29,5,8,0.0,0,0,33,0,8,1.0,asocial
01JWBYFMWCDR0KH95ZSTBYG6H4,29,6,8,0.0,0,0,41,3,8,1.0,asocial
01JWBYFMWCDR0KH95ZSTBYG6H4,29,7,8,0.0,0,0,4,1,8,1.0,asocial
01JWBYFMWCDR0KH95ZSTBYG6H4,29,8,8,0.0,17,2,69,6,8,1.0,asocial
01JWBYFMWCDR0KH95ZSTBYG6H4,29,9,8,0.0,5,4,24,4,8,1.0,asocial
01JWBYFMWCDR0KH95ZSTBYG6H4,30,0,8,1.0,0,0,37,2,8,0.0,asocial
01JWBYFMWCDR0KH95ZSTBYG6H4,30,1,8,1.0,0,0,6,1,8,0.0,asocial
01JWBYFMWCDR0KH95ZSTBYG6H4,30,2,8,1.0,0,0,5,2,8,0.0,asocial
01JWBYFMWCDR0KH95ZSTBYG6H4,30,3,8,1.0,0,0,31,3,8,0.0,asocial
01JWBYFMWCDR0KH95ZSTBYG6H4,30,4,8,1.0,0,0,5,0,8,0.0,asocial
01JWBYFMWCDR0KH95ZSTBYG6H4,30,5,8,1.0,0,0,34,0,8,0.0,asocial
01JWBYFMWCDR0KH95ZSTBYG6H4,30,6,8,1.0,0,0,42,3,8,0.0,asocial
01JWBYFMWCDR0KH95ZSTBYG6H4,30,7,8,1.0,0,0,4,1,8,0.0,asocial
01JWBYFMWCDR0KH95ZSTBYG6H4,30,8,8,1.0,17,3,71,7,8,0.0,asocial
01JWBYFMWCDR0KH95ZSTBYG6H4,30,9,8,1.0,5,4,26,4,8,0.0,asocial
01JWBYFMWCDR0KH95ZSTBYG6H4,31,0,8,1.0,0,0,38,2,8,1.0,asocial
01JWBYFMWCDR0KH95ZSTBYG6H4,31,1,8,1.0,0,0,6,1,8,1.0,asocial
01JWBYFMWCDR0KH95ZSTBYG6H4,31,2,8,1.0,0,0,5,2,8,1.0,asocial
01JWBYFMWCDR0KH95ZSTBYG6H4,31,3,8,1.0,0,0,31,4,8,1.0,asocial
01JWBYFMWCDR0KH95ZSTBYG6H4,31,4,8,1.0,0,0,5,0,8,1.0,asocial
01JWBYFMWCDR0KH95ZSTBYG6H4,31,5,8,1.0,0,0,35,0,8,1.0,asocial
01JWBYFMWCDR0KH95ZSTBYG6H4,31,6,8,1.0,0,0,43,4,8,1.0,asocial
01JWBYFMWCDR0KH95ZSTBYG6H4,31,7,8,1.0,0,0,4,1,8,1.0,asocial
01JWBYFMWCDR0KH95ZSTBYG6H4,31,8,8,1.0,18,3,74,8,8,1.0,asocial
01JWBYFMWCDR0KH95ZSTBYG6H4,31,9,8,1.0,5,4,26,5,8,1.0,asocial
01JWBYFMWCDR0KH95ZSTBYG6H4,32,0,8,1.0,0,0,39,2,8,1.0,asocial
01JWBYFMWCDR0KH95ZSTBYG6H4,32,1,8,1.0,0,0,6,1,8,1.0,asocial
01JWBYFMWCDR0KH95ZSTBYG6H4,32,2,8,1.0,0,0,5,2,8,1.0,asocial
01JWBYFMWCDR0KH95ZSTBYG6H4,32,3,8,1.0,0,0,32,4,8,1.0,asocial
01JWBYFMWCDR0KH95ZSTBYG6H4,32,4,8,1.0,0,0,5,0,8,1.0,asocial
01JWBYFMWCDR0KH95ZSTBYG6H4,32,5,8,1.0,0,0,36,0,8,1.0,asocial
01JWBYFMWCDR0KH95ZSTBYG6H4,32,6,8,1.0,0,0,45,4,8,1.0,asocial
01JWBYFMWCDR0KH95ZSTBYG6H4,32,7,8,1.0,0,0,5,1,8,1.0,asocial
01JWBYFMWCDR0KH95ZSTBYG6H4,32,8,8,1.0,19,3,77,8,8,1.0,asocial
01JWBYFMWCDR0KH95ZSTBYG6H4,32,9,8,1.0,5,4,27,5,8,1.0,asocial
01JWBYFMWCDR0KH95ZSTBYG6H4,33,0,8,1.0,0,0,40,2,8,1.0,asocial
01JWBYFMWCDR0KH95ZSTBYG6H4,33,1,8,1.0,0,0,6,1,8,1.0,asocial
01JWBYFMWCDR0KH95ZSTBYG6H4,33,2,8,1.0,0,0,5,2,8,1.0,asocial
01JWBYFMWCDR0KH95ZSTBYG6H4,33,3,8,1.0,0,0,33,4,8,1.0,asocial
01JWBYFMWCDR0KH95ZSTBYG6H4,33,4,8,1.0,0,0,5,0,8,1.0,asocial
01JWBYFMWCDR0KH95ZSTBYG6H4,33,5,8,1.0,0,0,37,0,8,1.0,asocial
01JWBYFMWCDR0KH95ZSTBYG6H4,33,6,8,1.0,0,0,46,4,8,1.0,asocial
01JWBYFMWCDR0KH95ZSTBYG6H4,33,7,8,1.0,0,0,6,1,8,1.0,asocial
01JWBYFMWCDR0KH95ZSTBYG6H4,33,8,8,1.0,20,3,79,9,8,1.0,asocial
01JWBYFMWCDR0KH95ZSTBYG6H4,33,9,8,1.0,5,4,29,5,8,1.0,asocial
01JWBYFMWCDR0KH95ZSTBYG6H4,34,0,8,1.0,0,0,41,2,8,1.0,asocial
01JWBYFMWCDR0KH95ZSTBYG6H4,34,1,8,1.0,0,0,6,1,8,1.0,asocial
01JWBYFMWCDR0KH95ZSTBYG6H4,34,2,8,1.0,0,0,5,2,8,1.0,asocial
01JWBYFMWCDR0KH95ZSTBYG6H4,34,3,8,1.0,0,0,34,4,8,1.0,asocial
01JWBYFMWCDR0KH95ZSTBYG6H4,34,4,8,1.0,0,0,6,0,8,1.0,asocial
01JWBYFMWCDR0KH95ZSTBYG6H4,34,5,8,1.0,0,0,38,0,8,1.0,asocial
01JWBYFMWCDR0KH95ZSTBYG6H4,34,6,8,1.0,0,0,47,4,8,1.0,asocial
01JWBYFMWCDR0KH95ZSTBYG6H4,34,7,8,1.0,0,0,7,1,8,1.0,asocial
01JWBYFMWCDR0KH95ZSTBYG6H4,34,8,8,1.0,21,3,83,9,8,1.0,asocial
01JWBYFMWCDR0KH95ZSTBYG6H4,34,9,8,1.0,5,4,29,5,8,1.0,asocial
01JWBYFMWCDR0KH95ZSTBYG6H4,35,0,8,1.0,0,0,42,2,8,1.0,asocial
01JWBYFMWCDR0KH95ZSTBYG6H4,35,1,8,1.0,0,0,7,1,8,1.0,asocial
01JWBYFMWCDR0KH95ZSTBYG6H4,35,2,8,1.0,0,0,5,2,8,1.0,asocial
01JWBYFMWCDR0KH95ZSTBYG6H4,35,3,8,1.0,0,0,36,4,8,1.0,asocial
01JWBYFMWCDR0KH95ZSTBYG6H4,35,4,8,1.0,0,0,6,0,8,1.0,asocial
01JWBYFMWCDR0KH95ZSTBYG6H4,35,5,8,1.0,0,0,39,0,8,1.0,asocial
01JWBYFMWCDR0KH95ZSTBYG6H4,35,6,8,1.0,0,0,48,4,8,1.0,asocial
01JWBYFMWCDR0KH95ZSTBYG6H4,35,7,8,1.0,0,0,7,2,8,1.0,asocial
01JWBYFMWCDR0KH95ZSTBYG6H4,35,8,8,1.0,22,3,85,9,8,1.0,asocial
01JWBYFMWCDR0KH95ZSTBYG6H4,35,9,8,1.0,5,4,30,5,8,1.0,asocial
01JWBYFMWCDR0KH95ZSTBYG6H4,36,0,8,1.0,0,0,43,2,8,1.0,asocial
01JWBYFMWCDR0KH95ZSTBYG6H4,36,1,8,1.0,0,0,7,1,8,1.0,asocial
01JWBYFMWCDR0KH95ZSTBYG6H4,36,2,8,1.0,0,0,6,2,8,1.0,asocial
01JWBYFMWCDR0KH95ZSTBYG6H4,36,3,8,1.0,0,0,38,4,8,1.0,asocial
01JWBYFMWCDR0KH95ZSTBYG6H4,36,4,8,1.0,0,0,6,0,8,1.0,asocial
01JWBYFMWCDR0KH95ZSTBYG6H4,36,5,8,1.0,0,0,40,0,8,1.0,asocial
01JWBYFMWCDR0KH95ZSTBYG6H4,36,6,8,1.0,0,0,49,4,8,1.0,asocial
01JWBYFMWCDR0KH95ZSTBYG6H4,36,7,8,1.0,0,0,7,2,8,1.0,asocial
01JWBYFMWCDR0KH95ZSTBYG6H4,36,8,8,1.0,23,3,86,10,8,1.0,asocial
01JWBYFMWCDR0KH95ZSTBYG6H4,36,9,8,1.0,5,4,32,5,8,1.0,asocial
01JWBYFMWCDR0KH95ZSTBYG6H4,37,0,8,1.0,0,0,44,2,8,1.0,asocial
01JWBYFMWCDR0KH95ZSTBYG6H4,37,1,8,1.0,0,0,7,1,8,1.0,asocial
01JWBYFMWCDR0KH95ZSTBYG6H4,37,2,8,1.0,0,0,6,2,8,1.0,asocial
01JWBYFMWCDR0KH95ZSTBYG6H4,37,3,8,1.0,0,0,40,4,8,1.0,asocial
01JWBYFMWCDR0KH95ZSTBYG6H4,37,4,8,1.0,0,0,6,0,8,1.0,asocial
01JWBYFMWCDR0KH95ZSTBYG6H4,37,5,8,1.0,0,0,42,0,8,1.0,asocial
01JWBYFMWCDR0KH95ZSTBYG6H4,37,6,8,1.0,0,0,49,5,8,1.0,asocial
01JWBYFMWCDR0KH95ZSTBYG6H4,37,7,8,1.0,0,0,7,2,8,1.0,asocial
01JWBYFMWCDR0KH95ZSTBYG6H4,37,8,8,1.0,24,3,88,10,8,1.0,asocial
01JWBYFMWCDR0KH95ZSTBYG6H4,37,9,8,1.0,5,4,34,5,8,1.0,asocial
01JWBYFMWCDR0KH95ZSTBYG6H4,38,0,8,1.0,0,0,44,3,8,1.0,asocial
01JWBYFMWCDR0KH95ZSTBYG6H4,38,1,8,1.0,0,0,7,1,8,1.0,asocial
01JWBYFMWCDR0KH95ZSTBYG6H4,38,2,8,1.0,0,0,6,2,8,1.0,asocial
01JWBYFMWCDR0KH95ZSTBYG6H4,38,3,8,1.0,0,0,41,5,8,1.0,asocial
01JWBYFMWCDR0KH95ZSTBYG6H4,38,4,8,1.0,0,0,6,1,8,1.0,asocial
01JWBYFMWCDR0KH95ZSTBYG6H4,38,5,8,1.0,0,0,43,0,8,1.0,asocial
01JWBYFMWCDR0KH95ZSTBYG6H4,38,6,8,1.0,0,0,50,5,8,1.0,asocial
01JWBYFMWCDR0KH95ZSTBYG6H4,38,7,8,1.0,0,0,7,2,8,1.0,asocial
01JWBYFMWCDR0KH95ZSTBYG6H4,38,8,8,1.0,25,3,90,11,8,1.0,asocial
01JWBYFMWCDR0KH95ZSTBYG6H4,38,9,8,1.0,5,4,34,6,8,1.0,asocial
01JWBYFMWCDR0KH95ZSTBYG6H4,39,0,8,1.0,0,0,45,3,8,1.0,asocial
01JWBYFMWCDR0KH95ZSTBYG6H4,39,1,8,1.0,0,0,7,1,8,1.0,asocial
01JWBYFMWCDR0KH95ZSTBYG6H4,39,2,8,1.0,0,0,6,2,8,1.0,asocial
01JWBYFMWCDR0KH95ZSTBYG6H4,39,3,8,1.0,0,0,43,5,8,1.0,asocial
01JWBYFMWCDR0KH95ZSTBYG6H4,39,4,8,1.0,0,0,6,1,8,1.0,asocial
01JWBYFMWCDR0KH95ZSTBYG6H4,39,5,8,1.0,0,0,45,0,8,1.0,asocial
01JWBYFMWCDR0KH95ZSTBYG6H4,39,6,8,1.0,0,0,51,5,8,1.0,asocial
01JWBYFMWCDR0KH95ZSTBYG6H4,39,7,8,1.0,0,0,8,2,8,1.0,asocial
01JWBYFMWCDR0KH95ZSTBYG6H4,39,8,8,1.0,26,3,93,11,8,1.0,asocial
01JWBYFMWCDR0KH95ZSTBYG6H4,39,9,8,1.0,5,4,34,6,8,1.0,asocial
01JWBYFMWCDR0KH95ZSTBYG6H4,40,0,8,1.0,0,0,46,3,8,1.0,asocial
01JWBYFMWCDR0KH95ZSTBYG6H4,40,1,8,1.0,0,0,7,1,8,1.0,asocial
01JWBYFMWCDR0KH95ZSTBYG6H4,40,2,8,1.0,0,0,6,2,8,1.0,asocial
01JWBYFMWCDR0KH95ZSTBYG6H4,40,3,8,1.0,0,0,45,5,8,1.0,asocial
01JWBYFMWCDR0KH95ZSTBYG6H4,40,4,8,1.0,0,0,7,1,8,1.0,asocial
01JWBYFMWCDR0KH95ZSTBYG6H4,40,5,8,1.0,0,0,47,0,8,1.0,asocial
01JWBYFMWCDR0KH95ZSTBYG6H4,40,6,8,1.0,0,0,52,5,8,1.0,asocial
01JWBYFMWCDR0KH95ZSTBYG6H4,40,7,8,1.0,0,0,8,2,8,1.0,asocial
01JWBYFMWCDR0KH95ZSTBYG6H4,40,8,8,1.0,27,3,96,11,8,1.0,asocial
01JWBYFMWCDR0KH95ZSTBYG6H4,40,9,8,1.0,5,4,34,6,8,1.0,asocial
01JWBYFMWCDR0KH95ZSTBYG6H4,41,0,8,1.0,0,0,48,3,8,1.0,asocial
01JWBYFMWCDR0KH95ZSTBYG6H4,41,1,8,1.0,0,0,8,1,8,1.0,asocial
01JWBYFMWCDR0KH95ZSTBYG6H4,41,2,8,1.0,0,0,6,2,8,1.0,asocial
01JWBYFMWCDR0KH95ZSTBYG6H4,41,3,8,1.0,0,0,47,5,8,1.0,asocial
01JWBYFMWCDR0KH95ZSTBYG6H4,41,4,8,1.0,0,0,7,1,8,1.0,asocial
01JWBYFMWCDR0KH95ZSTBYG6H4,41,5,8,1.0,0,0,48,0,8,1.0,asocial
01JWBYFMWCDR0KH95ZSTBYG6H4,41,6,8,1.0,0,0,52,6,8,1.0,asocial
01JWBYFMWCDR0KH95ZSTBYG6H4,41,7,8,1.0,0,0,8,2,8,1.0,asocial
01JWBYFMWCDR0KH95ZSTBYG6H4,41,8,8,1.0,28,3,99,11,8,1.0,asocial
01JWBYFMWCDR0KH95ZSTBYG6H4,41,9,8,1.0,5,4,34,6,8,1.0,asocial
01JWBYFMWCDR0KH95ZSTBYG6H4,42,0,8,1.0,0,0,50,3,8,1.0,asocial
01JWBYFMWCDR0KH95ZSTBYG6H4,42,1,8,1.0,0,0,8,1,8,1.0,asocial
01JWBYFMWCDR0KH95ZSTBYG6H4,42,2,8,1.0,0,0,6,2,8,1.0,asocial
01JWBYFMWCDR0KH95ZSTBYG6H4,42,3,8,1.0,0,0,49,5,8,1.0,asocial
01JWBYFMWCDR0KH95ZSTBYG6H4,42,4,8,1.0,0,0,7,1,8,1.0,asocial
01JWBYFMWCDR0KH95ZSTBYG6H4,42,5,8,1.0,0,0,49,0,8,1.0,asocial
01JWBYFMWCDR0KH95ZSTBYG6H4,42,6,8,1.0,0,0,53,7,8,1.0,asocial
01JWBYFMWCDR0KH95ZSTBYG6H4,42,7,8,1.0,0,0,8,2,8,1.0,asocial
01JWBYFMWCDR0KH95ZSTBYG6H4,42,8,8,1.0,29,3,101,12,8,1.0,asocial
01JWBYFMWCDR0KH95ZSTBYG6H4,42,9,8,1.0,5,4,34,6,8,1.0,asocial
01JWBYFMWCDR0KH95ZSTBYG6H4,43,0,8,1.0,0,0,52,3,8,1.0,asocial
01JWBYFMWCDR0KH95ZSTBYG6H4,43,1,8,1.0,0,0,9,1,8,1.0,asocial
01JWBYFMWCDR0KH95ZSTBYG6H4,43,2,8,1.0,0,0,6,2,8,1.0,asocial
01JWBYFMWCDR0KH95ZSTBYG6H4,43,3,8,1.0,0,0,52,5,8,1.0,asocial
01JWBYFMWCDR0KH95ZSTBYG6H4,43,4,8,1.0,0,0,7,1,8,1.0,asocial
01JWBYFMWCDR0KH95ZSTBYG6H4,43,5,8,1.0,0,0,50,0,8,1.0,asocial
01JWBYFMWCDR0KH95ZSTBYG6H4,43,6,8,1.0,0,0,54,7,8,1.0,asocial
01JWBYFMWCDR0KH95ZSTBYG6H4,43,7,8,1.0,0,0,8,2,8,1.0,asocial
01JWBYFMWCDR0KH95ZSTBYG6H4,43,8,8,1.0,30,3,103,12,8,1.0,asocial
01JWBYFMWCDR0KH95ZSTBYG6H4,43,9,8,1.0,5,4,34,6,8,1.0,asocial
01JWBYFMWCDR0KH95ZSTBYG6H4,44,0,8,1.0,0,0,53,3,8,1.0,asocial
01JWBYFMWCDR0KH95ZSTBYG6H4,44,1,8,1.0,0,0,9,1,8,1.0,asocial
01JWBYFMWCDR0KH95ZSTBYG6H4,44,2,8,1.0,0,0,6,2,8,1.0,asocial
01JWBYFMWCDR0KH95ZSTBYG6H4,44,3,8,1.0,0,0,52,6,8,1.0,asocial
01JWBYFMWCDR0KH95ZSTBYG6H4,44,4,8,1.0,0,0,7,1,8,1.0,asocial
01JWBYFMWCDR0KH95ZSTBYG6H4,44,5,8,1.0,0,0,54,0,8,1.0,asocial
01JWBYFMWCDR0KH95ZSTBYG6H4,44,6,8,1.0,0,0,55,7,8,1.0,asocial
01JWBYFMWCDR0KH95ZSTBYG6H4,44,7,8,1.0,0,0,8,2,8,1.0,asocial
01JWBYFMWCDR0KH95ZSTBYG6H4,44,8,8,1.0,31,3,106,12,8,1.0,asocial
01JWBYFMWCDR0KH95ZSTBYG6H4,44,9,8,1.0,5,4,34,6,8,1.0,asocial
01JWBYFMWCDR0KH95ZSTBYG6H4,45,0,8,1.0,0,0,53,4,8,1.0,asocial
01JWBYFMWCDR0KH95ZSTBYG6H4,45,1,8,1.0,0,0,10,1,8,1.0,asocial
01JWBYFMWCDR0KH95ZSTBYG6H4,45,2,8,1.0,0,0,6,2,8,1.0,asocial
01JWBYFMWCDR0KH95ZSTBYG6H4,45,3,8,1.0,0,0,53,6,8,1.0,asocial
01JWBYFMWCDR0KH95ZSTBYG6H4,45,4,8,1.0,0,0,7,1,8,1.0,asocial
01JWBYFMWCDR0KH95ZSTBYG6H4,45,5,8,1.0,0,0,56,1,8,1.0,asocial
01JWBYFMWCDR0KH95ZSTBYG6H4,45,6,8,1.0,0,0,56,7,8,1.0,asocial
01JWBYFMWCDR0KH95ZSTBYG6H4,45,7,8,1.0,0,0,8,2,8,1.0,asocial
01JWBYFMWCDR0KH95ZSTBYG6H4,45,8,8,1.0,32,3,108,12,8,1.0,asocial
01JWBYFMWCDR0KH95ZSTBYG6H4,45,9,8,1.0,5,4,35,6,8,1.0,asocial
01JWBYFMWCDR0KH95ZSTBYG6H4,46,0,8,1.0,0,0,54,4,8,1.0,asocial
01JWBYFMWCDR0KH95ZSTBYG6H4,46,1,8,1.0,0,0,10,1,8,1.0,asocial
01JWBYFMWCDR0KH95ZSTBYG6H4,46,2,8,1.0,0,0,6,2,8,1.0,asocial
01JWBYFMWCDR0KH95ZSTBYG6H4,46,3,8,1.0,0,0,54,6,8,1.0,asocial
01JWBYFMWCDR0KH95ZSTBYG6H4,46,4,8,1.0,0,0,7,1,8,1.0,asocial
01JWBYFMWCDR0KH95ZSTBYG6H4,46,5,8,1.0,0,0,60,1,8,1.0,asocial
01JWBYFMWCDR0KH95ZSTBYG6H4,46,6,8,1.0,0,0,58,7,8,1.0,asocial
01JWBYFMWCDR0KH95ZSTBYG6H4,46,7,8,1.0,0,0,8,2,8,1.0,asocial
01JWBYFMWCDR0KH95ZSTBYG6H4,46,8,8,1.0,33,3,110,12,8,1.0,asocial
01JWBYFMWCDR0KH95ZSTBYG6H4,46,9,8,1.0,5,4,35,6,8,1.0,asocial
01JWBYFMWCDR0KH95ZSTBYG6H4,47,0,8,1.0,0,0,55,4,8,1.0,asocial
01JWBYFMWCDR0KH95ZSTBYG6H4,47,1,8,1.0,0,0,10,1,8,1.0,asocial
01JWBYFMWCDR0KH95ZSTBYG6H4,47,2,8,1.0,0,0,6,2,8,1.0,asocial
01JWBYFMWCDR0KH95ZSTBYG6H4,47,3,8,1.0,0,0,55,6,8,1.0,asocial
01JWBYFMWCDR0KH95ZSTBYG6H4,47,4,8,1.0,0,0,7,1,8,1.0,asocial
01JWBYFMWCDR0KH95ZSTBYG6H4,47,5,8,1.0,0,0,63,2,8,1.0,asocial
01JWBYFMWCDR0KH95ZSTBYG6H4,47,6,8,1.0,0,0,59,7,8,1.0,asocial
01JWBYFMWCDR0KH95ZSTBYG6H4,47,7,8,1.0,0,0,8,2,8,1.0,asocial
01JWBYFMWCDR0KH95ZSTBYG6H4,47,8,8,1.0,34,3,112,12,8,1.0,asocial
01JWBYFMWCDR0KH95ZSTBYG6H4,47,9,8,1.0,5,4,36,6,8,1.0,asocial
01JWBYFMWCDR0KH95ZSTBYG6H4,48,0,8,1.0,0,0,57,4,8,1.0,asocial
01JWBYFMWCDR0KH95ZSTBYG6H4,48,1,8,1.0,0,0,10,1,8,1.0,asocial
01JWBYFMWCDR0KH95ZSTBYG6H4,48,2,8,1.0,0,0,7,2,8,1.0,asocial
01JWBYFMWCDR0KH95ZSTBYG6H4,48,3,8,1.0,0,0,56,6,8,1.0,asocial
01JWBYFMWCDR0KH95ZSTBYG6H4,48,4,8,1.0,0,0,7,1,8,1.0,asocial
01JWBYFMWCDR0KH95ZSTBYG6H4,48,5,8,1.0,0,0,65,2,8,1.0,asocial
01JWBYFMWCDR0KH95ZSTBYG6H4,48,6,8,1.0,0,0,60,7,8,1.0,asocial
01JWBYFMWCDR0KH95ZSTBYG6H4,48,7,8,1.0,0,0,8,2,8,1.0,asocial
01JWBYFMWCDR0KH95ZSTBYG6H4,48,8,8,1.0,35,3,114,12,8,1.0,asocial
01JWBYFMWCDR0KH95ZSTBYG6H4,48,9,8,1.0,5,4,36,7,8,1.0,asocial
01JWBYFMWCDR0KH95ZSTBYG6H4,49,0,8,1.0,0,0,59,4,8,1.0,asocial
01JWBYFMWCDR0KH95ZSTBYG6H4,49,1,8,1.0,0,0,10,1,8,1.0,asocial
01JWBYFMWCDR0KH95ZSTBYG6H4,49,2,8,1.0,0,0,7,2,8,1.0,asocial
01JWBYFMWCDR0KH95ZSTBYG6H4,49,3,8,1.0,0,0,57,6,8,1.0,asocial
01JWBYFMWCDR0KH95ZSTBYG6H4,49,4,8,1.0,0,0,8,1,8,1.0,asocial
01JWBYFMWCDR0KH95ZSTBYG6H4,49,5,8,1.0,0,0,67,2,8,1.0,asocial
01JWBYFMWCDR0KH95ZSTBYG6H4,49,6,8,1.0,0,0,62,7,8,1.0,asocial
01JWBYFMWCDR0KH95ZSTBYG6H4,49,7,8,1.0,0,0,8,2,8,1.0,asocial
01JWBYFMWCDR0KH95ZSTBYG6H4,49,8,8,1.0,36,3,116,12,8,1.0,asocial
01JWBYFMWCDR0KH95ZSTBYG6H4,49,9,8,1.0,5,4,36,7,8,1.0,asocial
01JWBYFMWCDR0KH95ZSTBYG6H4,50,0,8,1.0,0,0,62,4,8,1.0,asocial
01JWBYFMWCDR0KH95ZSTBYG6H4,50,1,8,1.0,0,0,10,1,8,1.0,asocial
01JWBYFMWCDR0KH95ZSTBYG6H4,50,2,8,1.0,0,0,7,2,8,1.0,asocial
01JWBYFMWCDR0KH95ZSTBYG6H4,50,3,8,1.0,0,0,58,6,8,1.0,asocial
01JWBYFMWCDR0KH95ZSTBYG6H4,50,4,8,1.0,0,0,8,1,8,1.0,asocial
01JWBYFMWCDR0KH95ZSTBYG6H4,50,5,8,1.0,0,0,69,2,8,1.0,asocial
01JWBYFMWCDR0KH95ZSTBYG6H4,50,6,8,1.0,0,0,64,7,8,1.0,asocial
01JWBYFMWCDR0KH95ZSTBYG6H4,50,7,8,1.0,0,0,8,2,8,1.0,asocial
01JWBYFMWCDR0KH95ZSTBYG6H4,50,8,8,1.0,37,3,118,12,8,1.0,asocial
01JWBYFMWCDR0KH95ZSTBYG6H4,50,9,8,1.0,5,4,36,7,8,1.0,asocial
01JWBYFMWCDR0KH95ZSTBYG6H4,51,0,8,1.0,0,0,64,4,8,1.0,asocial
01JWBYFMWCDR0KH95ZSTBYG6H4,51,1,8,1.0,0,0,10,1,8,1.0,asocial
01JWBYFMWCDR0KH95ZSTBYG6H4,51,2,8,1.0,0,0,7,2,8,1.0,asocial
01JWBYFMWCDR0KH95ZSTBYG6H4,51,3,8,1.0,0,0,59,6,8,1.0,asocial
01JWBYFMWCDR0KH95ZSTBYG6H4,51,4,8,1.0,0,0,8,1,8,1.0,asocial
01JWBYFMWCDR0KH95ZSTBYG6H4,51,5,8,1.0,0,0,72,2,8,1.0,asocial
01JWBYFMWCDR0KH95ZSTBYG6H4,51,6,8,1.0,0,0,65,7,8,1.0,asocial
01JWBYFMWCDR0KH95ZSTBYG6H4,51,7,8,1.0,0,0,8,3,8,1.0,asocial
01JWBYFMWCDR0KH95ZSTBYG6H4,51,8,8,1.0,38,3,120,12,8,1.0,asocial
01JWBYFMWCDR0KH95ZSTBYG6H4,51,9,8,1.0,5,4,36,7,8,1.0,asocial
01JWBYFPPW45DGY3EK9G2K0QW0,2,0,8,1.0,0,0,1,0,-1,,asocial
01JWBYFPPW45DGY3EK9G2K0QW0,2,1,8,1.0,0,0,1,0,-1,,asocial
01JWBYFPPW45DGY3EK9G2K0QW0,2,2,8,1.0,0,0,0,1,-1,,asocial
01JWBYFPPW45DGY3EK9G2K0QW0,2,3,8,1.0,0,0,1,0,-1,,asocial
01JWBYFPPW45DGY3EK9G2K0QW0,2,4,8,1.0,0,0,1,0,-1,,asocial
01JWBYFPPW45DGY3EK9G2K0QW0,2,5,8,1.0,0,0,0,0,-1,,asocial
01JWBYFPPW45DGY3EK9G2K0QW0,2,6,8,1.0,0,0,1,0,-1,,asocial
01JWBYFPPW45DGY3EK9G2K0QW0,2,7,8,1.0,0,0,1,0,-1,,asocial
01JWBYFPPW45DGY3EK9G2K0QW0,2,8,8,1.0,0,0,0,0,-1,,asocial
01JWBYFPPW45DGY3EK9G2K0QW0,2,9,8,1.0,0,0,1,0,-1,,asocial
01JWBYFPPW45DGY3EK9G2K0QW0,3,0,8,1.0,0,0,3,0,8,1.0,asocial
01JWBYFPPW45DGY3EK9G2K0QW0,3,1,8,1.0,0,0,1,1,8,1.0,asocial
01JWBYFPPW45DGY3EK9G2K0QW0,3,2,8,1.0,0,0,0,1,8,1.0,asocial
01JWBYFPPW45DGY3EK9G2K0QW0,3,3,8,1.0,0,0,2,0,8,1.0,asocial
01JWBYFPPW45DGY3EK9G2K0QW0,3,4,8,1.0,0,0,2,0,8,1.0,asocial
01JWBYFPPW45DGY3EK9G2K0QW0,3,5,8,1.0,0,0,0,0,8,1.0,asocial
01JWBYFPPW45DGY3EK9G2K0QW0,3,6,8,1.0,0,0,1,0,8,1.0,asocial
01JWBYFPPW45DGY3EK9G2K0QW0,3,7,8,1.0,0,0,1,0,8,1.0,asocial
01JWBYFPPW45DGY3EK9G2K0QW0,3,8,8,1.0,1,0,2,0,8,1.0,asocial
01JWBYFPPW45DGY3EK9G2K0QW0,3,9,8,1.0,0,0,3,0,8,1.0,asocial
01JWBYFPPW45DGY3EK9G2K0QW0,4,0,8,1.0,0,0,4,0,8,1.0,asocial
01JWBYFPPW45DGY3EK9G2K0QW0,4,1,8,1.0,0,0,1,1,8,1.0,asocial
01JWBYFPPW45DGY3EK9G2K0QW0,4,2,8,1.0,0,0,1,1,8,1.0,asocial
01JWBYFPPW45DGY3EK9G2K0QW0,4,3,8,1.0,0,0,3,0,8,1.0,asocial
01JWBYFPPW45DGY3EK9G2K0QW0,4,4,8,1.0,0,0,2,0,8,1.0,asocial
01JWBYFPPW45DGY3EK9G2K0QW0,4,5,8,1.0,0,0,0,0,8,1.0,asocial
01JWBYFPPW45DGY3EK9G2K0QW0,4,6,8,1.0,0,0,4,0,8,1.0,asocial
01JWBYFPPW45DGY3EK9G2K0QW0,4,7,8,1.0,0,0,1,0,8,1.0,asocial
01JWBYFPPW45DGY3EK9G2K0QW0,4,8,8,1.0,2,0,4,0,8,1.0,asocial
01JWBYFPPW45DGY3EK9G2K0QW0,4,9,8,1.0,0,0,3,1,8,1.0,asocial
01JWBYFPPW45DGY3EK9G2K0QW0,5,0,8,1.0,0,0,6,0,8,1.0,asocial
01JWBYFPPW45DGY3EK9G2K0QW0,5,1,8,1.0,0,0,1,1,8,1.0,asocial
01JWBYFPPW45DGY3EK9G2K0QW0,5,2,8,1.0,0,0,1,1,8,1.0,asocial
01JWBYFPPW45DGY3EK9G2K0QW0,5,3,8,1.0,0,0,4,0,8,1.0,asocial
01JWBYFPPW45DGY3EK9G2K0QW0,5,4,8,1.0,0,0,2,0,8,1.0,asocial
01JWBYFPPW45DGY3EK9G2K0QW0,5,5,8,1.0,0,0,2,0,8,1.0,asocial
01JWBYFPPW45DGY3EK9G2K0QW0,5,6,8,1.0,0,0,6,0,8,1.0,asocial
01JWBYFPPW45DGY3EK9G2K0QW0,5,7,8,1.0,0,0,1,0,8,1.0,asocial
01JWBYFPPW45DGY3EK9G2K0QW0,5,8,8,1.0,3,0,6,0,8,1.0,asocial
01JWBYFPPW45DGY3EK9G2K0QW0,5,9,8,1.0,0,0,4,1,8,1.0,asocial
01JWBYFPPW45DGY3EK9G2K0QW0,6,0,8,1.0,0,0,8,0,8,1.0,asocial
01JWBYFPPW45DGY3EK9G2K0QW0,6,1,8,1.0,0,0,1,1,8,1.0,asocial
01JWBYFPPW45DGY3EK9G2K0QW0,6,2,8,1.0,0,0,1,1,8,1.0,asocial
01JWBYFPPW45DGY3EK9G2K0QW0,6,3,8,1.0,0,0,5,0,8,1.0,asocial
01JWBYFPPW45DGY3EK9G2K0QW0,6,4,8,1.0,0,0,2,0,8,1.0,asocial
01JWBYFPPW45DGY3EK9G2K0QW0,6,5,8,1.0,0,0,3,0,8,1.0,asocial
01JWBYFPPW45DGY3EK9G2K0QW0,6,6,8,1.0,0,0,8,0,8,1.0,asocial
01JWBYFPPW45DGY3EK9G2K0QW0,6,7,8,1.0,0,0,1,0,8,1.0,asocial
01JWBYFPPW45DGY3EK9G2K0QW0,6,8,8,1.0,4,0,7,1,8,1.0,asocial
01JWBYFPPW45DGY3EK9G2K0QW0,6,9,8,1.0,0,0,6,1,8,1.0,asocial
01JWBYFPPW45DGY3EK9G2K0QW0,7,0,8,1.0,0,0,10,0,8,1.0,asocial
01JWBYFPPW45DGY3EK9G2K0QW0,7,1,8,1.0,0,0,1,1,8,1.0,asocial
01JWBYFPPW45DGY3EK9G2K0QW0,7,2,8,1.0,0,0,2,1,8,1.0,asocial
01JWBYFPPW45DGY3EK9G2K0QW0,7,3,8,1.0,0,0,6,0,8,1.0,asocial
01JWBYFPPW45DGY3EK9G2K0QW0,7,4,8,1.0,0,0,3,0,8,1.0,asocial
01JWBYFPPW45DGY3EK9G2K0QW0,7,5,8,1.0,0,0,4,0,8,1.0,asocial
01JWBYFPPW45DGY3EK9G2K0QW0,7,6,8,1.0,0,0,9,0,8,1.0,asocial
01JWBYFPPW45DGY3EK9G2K0QW0,7,7,8,1.0,0,0,1,0,8,1.0,asocial
01JWBYFPPW45DGY3EK9G2K0QW0,7,8,8,1.0,5,0,9,1,8,1.0,asocial
01JWBYFPPW45DGY3EK9G2K0QW0,7,9,8,1.0,0,0,7,1,8,1.0,asocial
01JWBYFPPW45DGY3EK9G2K0QW0,8,0,8,0.0,0,0,13,0,8,1.0,asocial
01JWBYFPPW45DGY3EK9G2K0QW0,8,1,8,0.0,0,0,1,1,8,1.0,asocial
01JWBYFPPW45DGY3EK9G2K0QW0,8,2,8,0.0,0,0,2,1,8,1.0,asocial
01JWBYFPPW45DGY3EK9G2K0QW0,8,3,8,0.0,0,0,7,0,8,1.0,asocial
01JWBYFPPW45DGY3EK9G2K0QW0,8,4,8,0.0,0,0,3,0,8,1.0,asocial
01JWBYFPPW45DGY3EK9G2K0QW0,8,5,8,0.0,0,0,5,0,8,1.0,asocial
01JWBYFPPW45DGY3EK9G2K0QW0,8,6,8,0.0,0,0,10,0,8,1.0,asocial
01JWBYFPPW45DGY3EK9G2K0QW0,8,7,8,0.0,0,0,2,0,8,1.0,asocial
01JWBYFPPW45DGY3EK9G2K0QW0,8,8,8,0.0,6,0,11,1,8,1.0,asocial
01JWBYFPPW45DGY3EK9G2K0QW0,8,9,8,0.0,0,0,7,2,8,1.0,asocial
01JWBYFPPW45DGY3EK9G2K0QW0,9,0,8,1.0,0,0,15,0,8,0.0,asocial
01JWBYFPPW45DGY3EK9G2K0QW0,9,1,8,1.0,0,0,1,1,8,0.0,asocial
01JWBYFPPW45DGY3EK9G2K0QW0,9,2,8,1.0,0,0,2,1,8,0.0,asocial
01JWBYFPPW45DGY3EK9G2K0QW0,9,3,8,1.0,0,0,8,1,8,0.0,asocial
01JWBYFPPW45DGY3EK9G2K0QW0,9,4,8,1.0,0,0,3,0,8,0.0,asocial
01JWBYFPPW45DGY3EK9G2K0QW0,9,5,8,1.0,0,0,6,0,8,0.0,asocial
01JWBYFPPW45DGY3EK9G2K0QW0,9,6,8,1.0,0,0,11,0,8,0.0,asocial
01JWBYFPPW45DGY3EK9G2K0QW0,9,7,8,1.0,0,0,2,0,8,0.0,asocial
01JWBYFPPW45DGY3EK9G2K0QW0,9,8,8,1.0,6,1,12,2,8,0.0,asocial
01JWBYFPPW45DGY3EK9G2K0QW0,9,9,8,1.0,0,0,8,3,8,0.0,asocial
01JWBYFPPW45DGY3EK9G2K0QW0,10,0,8,1.0,0,0,16,0,8,1.0,asocial
01JWBYFPPW45DGY3EK9G2K0QW0,10,1,8,1.0,0,0,2,1,8,1.0,asocial
01JWBYFPPW45DGY3EK9G2K0QW0,10,2,8,1.0,0,0,2,1,8,1.0,asocial
01JWBYFPPW45DGY3EK9G2K0QW0,10,3,8,1.0,0,0,9,1,8,1.0,asocial
01JWBYFPPW45DGY3EK9G2K0QW0,10,4,8,1.0,0,0,3,0,8,1.0,asocial
01JWBYFPPW45DGY3EK9G2K0QW0,10,5,8,1.0,0,0,8,0,8,1.0,asocial
01JWBYFPPW45DGY3EK9G2K0QW0,10,6,8,1.0,0,0,13,0,8,1.0,asocial
01JWBYFPPW45DGY3EK9G2K0QW0,10,7,8,1.0,0,0,2,0,8,1.0,asocial
01JWBYFPPW45DGY3EK9G2K0QW0,10,8,8,1.0,7,1,14,2,8,1.0,asocial
01JWBYFPPW45DGY3EK9G2K0QW0,10,9,8,1.0,0,0,8,4,8,1.0,asocial
01JWBYFPPW45DGY3EK9G2K0QW0,11,0,8,1.0,0,0,17,0,8,1.0,asocial
01JWBYFPPW45DGY3EK9G2K0QW0,11,1,8,1.0,0,0,2,1,8,1.0,asocial
01JWBYFPPW45DGY3EK9G2K0QW0,11,2,8,1.0,0,0,2,1,8,1.0,asocial
01JWBYFPPW45DGY3EK9G2K0QW0,11,3,8,1.0,0,0,10,1,8,1.0,asocial
01JWBYFPPW45DGY3EK9G2K0QW0,11,4,8,1.0,0,0,3,0,8,1.0,asocial
01JWBYFPPW45DGY3EK9G2K0QW0,11,5,8,1.0,0,0,10,0,8,1.0,asocial
01JWBYFPPW45DGY3EK9G2K0QW0,11,6,8,1.0,0,0,14,0,8,1.0,asocial
01JWBYFPPW45DGY3EK9G2K0QW0,11,7,8,1.0,0,0,2,0,8,1.0,asocial
01JWBYFPPW45DGY3EK9G2K0QW0,11,8,8,1.0,8,1,17,2,8,1.0,asocial
01JWBYFPPW45DGY3EK9G2K0QW0,11,9,8,1.0,0,0,10,4,8,1.0,asocial
01JWBYFPPW45DGY3EK9G2K0QW0,12,0,8,0.0,0,0,18,0,8,1.0,asocial
01JWBYFPPW45DGY3EK9G2K0QW0,12,1,8,0.0,0,0,2,1,8,1.0,asocial
01JWBYFPPW45DGY3EK9G2K0QW0,12,2,8,0.0,0,0,2,1,8,1.0,asocial
01JWBYFPPW45DGY3EK9G2K0QW0,12,3,8,0.0,0,0,11,2,8,1.0,asocial
01JWBYFPPW45DGY3EK9G2K0QW0,12,4,8,0.0,0,0,4,0,8,1.0,asocial
01JWBYFPPW45DGY3EK9G2K0QW0,12,5,8,0.0,0,0,11,0,8,1.0,asocial
01JWBYFPPW45DGY3EK9G2K0QW0,12,6,8,0.0,0,0,15,0,8,1.0,asocial
01JWBYFPPW45DGY3EK9G2K0QW0,12,7,8,0.0,0,0,2,0,8,1.0,asocial
01JWBYFPPW45DGY3EK9G2K0QW0,12,8,8,0.0,9,1,20,2,8,1.0,asocial
01JWBYFPPW45DGY3EK9G2K0QW0,12,9,8,0.0,0,0,11,4,8,1.0,asocial
01JWBYFPPW45DGY3EK9G2K0QW0,13,0,8,1.0,0,0,19,0,8,0.0,asocial
01JWBYFPPW45DGY3EK9G2K0QW0,13,1,8,1.0,0,0,2,1,8,0.0,asocial
01JWBYFPPW45DGY3EK9G2K0QW0,13,2,8,1.0,0,0,2,1,8,0.0,asocial
01JWBYFPPW45DGY3EK9G2K0QW0,13,3,8,1.0,0,0,12,2,8,0.0,asocial
01JWBYFPPW45DGY3EK9G2K0QW0,13,4,8,1.0,0,0,4,0,8,0.0,asocial
01JWBYFPPW45DGY3EK9G2K0QW0,13,5,8,1.0,0,0,12,0,8,0.0,asocial
01JWBYFPPW45DGY3EK9G2K0QW0,13,6,8,1.0,0,0,17,0,8,0.0,asocial
01JWBYFPPW45DGY3EK9G2K0QW0,13,7,8,1.0,0,0,3,0,8,0.0,asocial
01JWBYFPPW45DGY3EK9G2K0QW0,13,8,8,1.0,9,2,22,4,8,0.0,asocial
01JWBYFPPW45DGY3EK9G2K0QW0,13,9,8,1.0,0,0,11,4,8,0.0,asocial
01JWBYFPPW45DGY3EK9G2K0QW0,14,0,8,1.0,0,0,20,0,8,1.0,asocial
01JWBYFPPW45DGY3EK9G2K0QW0,14,1,8,1.0,0,0,3,1,8,1.0,asocial
01JWBYFPPW45DGY3EK9G2K0QW0,14,2,8,1.0,0,0,2,1,8,1.0,asocial
01JWBYFPPW45DGY3EK9G2K0QW0,14,3,8,1.0,0,0,13,2,8,1.0,asocial
01JWBYFPPW45DGY3EK9G2K0QW0,14,4,8,1.0,0,0,4,0,8,1.0,asocial
01JWBYFPPW45DGY3EK9G2K0QW0,14,5,8,1.0,0,0,13,0,8,1.0,asocial
01JWBYFPPW45DGY3EK9G2K0QW0,14,6,8,1.0,0,0,18,0,8,1.0,asocial
01JWBYFPPW45DGY3EK9G2K0QW0,14,7,8,1.0,0,0,3,0,8,1.0,asocial
01JWBYFPPW45DGY3EK9G2K0QW0,14,8,8,1.0,10,2,25,4,8,1.0,asocial
01JWBYFPPW45DGY3EK9G2K0QW0,14,9,8,1.0,0,0,12,4,8,1.0,asocial
01JWBYFPPW45DGY3EK9G2K0QW0,15,0,8,1.0,0,0,21,0,8,1.0,asocial
01JWBYFPPW45DGY3EK9G2K0QW0,15,1,8,1.0,0,0,3,1,8,1.0,asocial
01JWBYFPPW45DGY3EK9G2K0QW0,15,2,8,1.0,0,0,2,1,8,1.0,asocial
01JWBYFPPW45DGY3EK9G2K0QW0,15,3,8,1.0,0,0,14,2,8,1.0,asocial
01JWBYFPPW45DGY3EK9G2K0QW0,15,4,8,1.0,0,0,4,0,8,1.0,asocial
01JWBYFPPW45DGY3EK9G2K0QW0,15,5,8,1.0,0,0,14,0,8,1.0,asocial
01JWBYFPPW45DGY3EK9G2K0QW0,15,6,8,1.0,0,0,21,1,8,1.0,asocial
01JWBYFPPW45DGY3EK9G2K0QW0,15,7,8,1.0,0,0,3,0,8,1.0,asocial
01JWBYFPPW45DGY3EK9G2K0QW0,15,8,8,1.0,11,2,27,5,8,1.0,asocial
01JWBYFPPW45DGY3EK9G2K0QW0,15,9,8,1.0,0,0,12,4,8,1.0,asocial
01JWBYFPPW45DGY3EK9G2K0QW0,16,0,8,1.0,0,0,23,0,8,1.0,asocial
01JWBYFPPW45DGY3EK9G2K0QW0,16,1,8,1.0,0,0,3,1,8,1.0,asocial
01JWBYFPPW45DGY3EK9G2K0QW0,16,2,8,1.0,0,0,3,1,8,1.0,asocial
01JWBYFPPW45DGY3EK9G2K0QW0,16,3,8,1.0,0,0,15,2,8,1.0,asocial
01JWBYFPPW45DGY3EK9G2K0QW0,16,4,8,1.0,0,0,4,0,8,1.0,asocial
01JWBYFPPW45DGY3EK9G2K0QW0,16,5,8,1.0,0,0,15,0,8,1.0,asocial
01JWBYFPPW45DGY3EK9G2K0QW0,16,6,8,1.0,0,0,22,2,8,1.0,asocial
01JWBYFPPW45DGY3EK9G2K0QW0,16,7,8,1.0,0,0,3,0,8,1.0,asocial
01JWBYFPPW45DGY3EK9G2K0QW0,16,8,8,1.0,12,2,30,5,8,1.0,asocial
01JWBYFPPW45DGY3EK9G2K0QW0,16,9,8,1.0,0,0,12,4,8,1.0,asocial
01JWBYFPPW45DGY3EK9G2K0QW0,17,0,8,1.0,0,0,24,0,8,1.0,asocial
01JWBYFPPW45DGY3EK9G2K0QW0,17,1,8,1.0,0,0,3,1,8,1.0,asocial
01JWBYFPPW45DGY3EK9G2K0QW0,17,2,8,1.0,0,0,3,1,8,1.0,asocial
01JWBYFPPW45DGY3EK9G2K0QW0,17,3,8,1.0,0,0,16,2,8,1.0,asocial
01JWBYFPPW45DGY3EK9G2K0QW0,17,4,8,1.0,0,0,4,0,8,1.0,asocial
01JWBYFPPW45DGY3EK9G2K0QW0,17,5,8,1.0,0,0,16,0,8,1.0,asocial
01JWBYFPPW45DGY3EK9G2K0QW0,17,6,8,1.0,0,0,24,2,8,1.0,asocial
01JWBYFPPW45DGY3EK9G2K0QW0,17,7,8,1.0,0,0,3,1,8,1.0,asocial
01JWBYFPPW45DGY3EK9G2K0QW0,17,8,8,1.0,13,2,33,5,8,1.0,asocial
01JWBYFPPW45DGY3EK9G2K0QW0,17,9,8,1.0,0,0,13,4,8,1.0,asocial
01JWBYFPPW45DGY3EK9G2K0QW0,18,0,8,1.0,0,0,25,1,8,1.0,asocial
01JWBYFPPW45DGY3EK9G2K0QW0,18,1,8,1.0,0,0,3,1,8,1.0,asocial
01JWBYFPPW45DGY3EK9G2K0QW0,18,2,8,1.0,0,0,3,1,8,1.0,asocial
01JWBYFPPW45DGY3EK9G2K0QW0,18,3,8,1.0,0,0,16,3,8,1.0,asocial
01JWBYFPPW45DGY3EK9G2K0QW0,18,4,8,1.0,0,0,4,0,8,1.0,asocial
01JWBYFPPW45DGY3EK9G2K0QW0,18,5,8,1.0,0,0,17,0,8,1.0,asocial
01JWBYFPPW45DGY3EK9G2K0QW0,18,6,8,1.0,0,0,26,3,8,1.0,asocial
01JWBYFPPW45DGY3EK9G2K0QW0,18,7,8,1.0,0,0,3,1,8,1.0,asocial
01JWBYFPPW45DGY3EK9G2K0QW0,18,8,8,1.0,14,2,36,5,8,1.0,asocial
01JWBYFPPW45DGY3EK9G2K0QW0,18,9,8,1.0,0,0,13,4,8,1.0,asocial
01JWBYFPPW45DGY3EK9G2K0QW0,19,0,8,1.0,0,0,26,1,8,1.0,asocial
01JWBYFPPW45DGY3EK9G2K0QW0,19,1,8,1.0,0,0,3,1,8,1.0,asocial
01JWBYFPPW45DGY3EK9G2K0QW0,19,2,8,1.0,0,0,3,1,8,1.0,asocial
01JWBYFPPW45DGY3EK9G2K0QW0,19,3,8,1.0,0,0,17,3,8,1.0,asocial
01JWBYFPPW45DGY3EK9G2K0QW0,19,4,8,1.0,0,0,4,0,8,1.0,asocial
01JWBYFPPW45DGY3EK9G2K0QW0,19,5,8,1.0,0,0,18,0,8,1.0,asocial
01JWBYFPPW45DGY3EK9G2K0QW0,19,6,8,1.0,0,0,28,3,8,1.0,asocial
01JWBYFPPW45DGY3EK9G2K0QW0,19,7,8,1.0,0,0,3,1,8,1.0,asocial
01JWBYFPPW45DGY3EK9G2K0QW0,19,8,8,1.0,15,2,38,5,8,1.0,asocial
01JWBYFPPW45DGY3EK9G2K0QW0,19,9,8,1.0,0,0,15,4,8,1.0,asocial
01JWBYFPPW45DGY3EK9G2K0QW0,20,0,8,1.0,0,0,27,2,8,1.0,asocial
01JWBYFPPW45DGY3EK9G2K0QW0,20,1,8,1.0,0,0,3,1,8,1.0,asocial
01JWBYFPPW45DGY3EK9G2K0QW0,20,2,8,1.0,0,0,4,1,8,1.0,asocial
01JWBYFPPW45DGY3EK9G2K0QW0,20,3,8,1.0,0,0,18,3,8,1.0,asocial
01JWBYFPPW45DGY3EK9G2K0QW0,20,4,8,1.0,0,0,4,0,8,1.0,asocial
01JWBYFPPW45DGY3EK9G2K0QW0,20,5,8,1.0,0,0,20,0,8,1.0,asocial
01JWBYFPPW45DGY3EK9G2K0QW0,20,6,8,1.0,0,0,29,3,8,1.0,asocial
01JWBYFPPW45DGY3EK9G2K0QW0,20,7,8,1.0,0,0,3,1,8,1.0,asocial
01JWBYFPPW45DGY3EK9G2K0QW0,20,8,8,1.0,16,2,41,5,8,1.0,asocial
01JWBYFPPW45DGY3EK9G2K0QW0,20,9,8,1.0,0,0,15,4,8,1.0,asocial
01JWBYFPPW45DGY3EK9G2K0QW0,21,0,8,1.0,0,0,28,2,8,1.0,asocial
01JWBYFPPW45DGY3EK9G2K0QW0,21,1,8,1.0,0,0,3,1,8,1.0,asocial
01JWBYFPPW45DGY3EK9G2K0QW0,21,2,8,1.0,0,0,5,1,8,1.0,asocial
01JWBYFPPW45DGY3EK9G2K0QW0,21,3,8,1.0,0,0,19,3,8,1.0,asocial
01JWBYFPPW45DGY3EK9G2K0QW0,21,4,8,1.0,0,0,5,0,8,1.0,asocial
01JWBYFPPW45DGY3EK9G2K0QW0,21,5,8,1.0,0,0,21,0,8,1.0,asocial
01JWBYFPPW45DGY3EK9G2K0QW0,21,6,8,1.0,0,0,30,3,8,1.0,asocial
01JWBYFPPW45DGY3EK9G2K0QW0,21,7,8,1.0,0,0,3,1,8,1.0,asocial
01JWBYFPPW45DGY3EK9G2K0QW0,21,8,8,1.0,17,2,44,5,8,1.0,asocial
01JWBYFPPW45DGY3EK9G2K0QW0,21,9,8,1.0,0,0,16,4,8,1.0,asocial
01JWBYFPPW45DGY3EK9G2K0QW0,22,0,8,1.0,0,0,29,2,8,1.0,asocial
01JWBYFPPW45DGY3EK9G2K0QW0,22,1,8,1.0,0,0,3,1,8,1.0,asocial
01JWBYFPPW45DGY3EK9G2K0QW0,22,2,8,1.0,0,0,5,1,8,1.0,asocial
01JWBYFPPW45DGY3EK9G2K0QW0,22,3,8,1.0,0,0,20,3,8,1.0,asocial
01JWBYFPPW45DGY3EK9G2K0QW0,22,4,8,1.0,0,0,5,0,8,1.0,asocial
01JWBYFPPW45DGY3EK9G2K0QW0,22,5,8,1.0,0,0,23,0,8,1.0,asocial
01JWBYFPPW45DGY3EK9G2K0QW0,22,6,8,1.0,0,0,31,3,8,1.0,asocial
01JWBYFPPW45DGY3EK9G2K0QW0,22,7,8,1.0,0,0,3,1,8,1.0,asocial
01JWBYFPPW45DGY3EK9G2K0QW0,22,8,8,1.0,18,2,48,5,8,1.0,asocial
01JWBYFPPW45DGY3EK9G2K0QW0,22,9,8,1.0,0,0,17,4,8,1.0,asocial
01JWBYFPPW45DGY3EK9G2K0QW0,23,0,8,1.0,0,0,30,2,8,1.0,asocial
01JWBYFPPW45DGY3EK9G2K0QW0,23,1,8,1.0,0,0,4,1,8,1.0,asocial
01JWBYFPPW45DGY3EK9G2K0QW0,23,2,8,1.0,0,0,5,1,8,1.0,asocial
01JWBYFPPW45DGY3EK9G2K0QW0,23,3,8,1.0,0,0,21,3,8,1.0,asocial
01JWBYFPPW45DGY3EK9G2K0QW0,23,4,8,1.0,0,0,5,0,8,1.0,asocial
01JWBYFPPW45DGY3EK9G2K0QW0,23,5,8,1.0,0,0,26,0,8,1.0,asocial
01JWBYFPPW45DGY3EK9G2K0QW0,23,6,8,1.0,0,0,32,3,8,1.0,asocial
01JWBYFPPW45DGY3EK9G2K0QW0,23,7,8,1.0,0,0,3,1,8,1.0,asocial
01JWBYFPPW45DGY3EK9G2K0QW0,23,8,8,1.0,19,2,51,5,8,1.0,asocial
01JWBYFPPW45DGY3EK9G2K0QW0,23,9,8,1.0,0,0,17,4,8,1.0,asocial
01JWBYFPPW45DGY3EK9G2K0QW0,24,0,8,1.0,0,0,31,2,8,1.0,asocial
01JWBYFPPW45DGY3EK9G2K0QW0,24,1,8,1.0,0,0,5,1,8,1.0,asocial
01JWBYFPPW45DGY3EK9G2K0QW0,24,2,8,1.0,0,0,5,2,8,1.0,asocial
01JWBYFPPW45DGY3EK9G2K0QW0,24,3,8,1.0,0,0,22,3,8,1.0,asocial
01JWBYFPPW45DGY3EK9G2K0QW0,24,4,8,1.0,0,0,5,0,8,1.0,asocial
01JWBYFPPW45DGY3EK9G2K0QW0,24,5,8,1.0,0,0,27,0,8,1.0,asocial
01JWBYFPPW45DGY3EK9G2K0QW0,24,6,8,1.0,0,0,34,3,8,1.0,asocial
01JWBYFPPW45DGY3EK9G2K0QW0,24,7,8,1.0,0,0,3,1,8,1.0,asocial
01JWBYFPPW45DGY3EK9G2K0QW0,24,8,8,1.0,20,2,54,5,8,1.0,asocial
01JWBYFPPW45DGY3EK9G2K0QW0,24,9,8,1.0,0,0,17,4,8,1.0,asocial
01JWBYFPPW45DGY3EK9G2K0QW0,25,0,8,1.0,0,0,32,2,8,1.0,asocial
01JWBYFPPW45DGY3EK9G2K0QW0,25,1,8,1.0,0,0,5,1,8,1.0,asocial
01JWBYFPPW45DGY3EK9G2K0QW0,25,2,8,1.0,0,0,5,2,8,1.0,asocial
01JWBYFPPW45DGY3EK9G2K0QW0,25,3,8,1.0,0,0,23,3,8,1.0,asocial
01JWBYFPPW45DGY3EK9G2K0QW0,25,4,8,1.0,0,0,5,0,8,1.0,asocial
01JWBYFPPW45DGY3EK9G2K0QW0,25,5,8,1.0,0,0,28,0,8,1.0,asocial
01JWBYFPPW45DGY3EK9G2K0QW0,25,6,8,1.0,0,0,36,3,8,1.0,asocial
01JWBYFPPW45DGY3EK9G2K0QW0,25,7,8,1.0,0,0,4,1,8,1.0,asocial
01JWBYFPPW45DGY3EK9G2K0QW0,25,8,8,1.0,21,2,57,5,8,1.0,asocial
01JWBYFPPW45DGY3EK9G2K0QW0,25,9,8,1.0,0,0,18,4,8,1.0,asocial
01JWBYFPPW45DGY3EK9G2K0QW0,26,0,8,1.0,0,0,33,2,8,1.0,asocial
01JWBYFPPW45DGY3EK9G2K0QW0,26,1,8,1.0,0,0,5,1,8,1.0,asocial
01JWBYFPPW45DGY3EK9G2K0QW0,26,2,8,1.0,0,0,5,2,8,1.0,asocial
01JWBYFPPW45DGY3EK9G2K0QW0,26,3,8,1.0,0,0,26,3,8,1.0,asocial
01JWBYFPPW45DGY3EK9G2K0QW0,26,4,8,1.0,0,0,5,0,8,1.0,asocial
01JWBYFPPW45DGY3EK9G2K0QW0,26,5,8,1.0,0,0,29,0,8,1.0,asocial
01JWBYFPPW45DGY3EK9G2K0QW0,26,6,8,1.0,0,0,38,3,8,1.0,asocial
01JWBYFPPW45DGY3EK9G2K0QW0,26,7,8,1.0,0,0,4,1,8,1.0,asocial
01JWBYFPPW45DGY3EK9G2K0QW0,26,8,8,1.0,22,2,60,5,8,1.0,asocial
01JWBYFPPW45DGY3EK9G2K0QW0,26,9,8,1.0,0,0,18,4,8,1.0,asocial
01JWBYFPPW45DGY3EK9G2K0QW0,27,0,8,1.0,0,0,34,2,8,1.0,asocial
01JWBYFPPW45DGY3EK9G2K0QW0,27,1,8,1.0,0,0,5,1,8,1.0,asocial
01JWBYFPPW45DGY3EK9G2K0QW0,27,2,8,1.0,0,0,5,2,8,1.0,asocial
01JWBYFPPW45DGY3EK9G2K0QW0,27,3,8,1.0,0,0,28,3,8,1.0,asocial
01JWBYFPPW45DGY3EK9G2K0QW0,27,4,8,1.0,0,0,5,0,8,1.0,asocial
01JWBYFPPW45DGY3EK9G2K0QW0,27,5,8,1.0,0,0,30,0,8,1.0,asocial
01JWBYFPPW45DGY3EK9G2K0QW0,27,6,8,1.0,0,0,39,3,8,1.0,asocial
01JWBYFPPW45DGY3EK9G2K0QW0,27,7,8,1.0,0,0,4,1,8,1.0,asocial
01JWBYFPPW45DGY3EK9G2K0QW0,27,8,8,1.0,23,2,63,6,8,1.0,asocial
01JWBYFPPW45DGY3EK9G2K0QW0,27,9,8,1.0,0,0,19,4,8,1.0,asocial
01JWBYFPPW45DGY3EK9G2K0QW0,28,0,8,1.0,0,0,35,2,8,1.0,asocial
01JWBYFPPW45DGY3EK9G2K0QW0,28,1,8,1.0,0,0,5,1,8,1.0,asocial
01JWBYFPPW45DGY3EK9G2K0QW0,28,2,8,1.0,0,0,5,2,8,1.0,asocial
01JWBYFPPW45DGY3EK9G2K0QW0,28,3,8,1.0,0,0,29,3,8,1.0,asocial
01JWBYFPPW45DGY3EK9G2K0QW0,28,4,8,1.0,0,0,5,0,8,1.0,asocial
01JWBYFPPW45DGY3EK9G2K0QW0,28,5,8,1.0,0,0,32,0,8,1.0,asocial
01JWBYFPPW45DGY3EK9G2K0QW0,28,6,8,1.0,0,0,40,3,8,1.0,asocial
01JWBYFPPW45DGY3EK9G2K0QW0,28,7,8,1.0,0,0,4,1,8,1.0,asocial
01JWBYFPPW45DGY3EK9G2K0QW0,28,8,8,1.0,24,2,66,6,8,1.0,asocial
01JWBYFPPW45DGY3EK9G2K0QW0,28,9,8,1.0,0,0,21,4,8,1.0,asocial
01JWBYFPPW45DGY3EK9G2K0QW0,29,0,8,1.0,0,0,36,2,8,1.0,asocial
01JWBYFPPW45DGY3EK9G2K0QW0,29,1,8,1.0,0,0,5,1,8,1.0,asocial
01JWBYFPPW45DGY3EK9G2K0QW0,29,2,8,1.0,0,0,5,2,8,1.0,asocial
01JWBYFPPW45DGY3EK9G2K0QW0,29,3,8,1.0,0,0,30,3,8,1.0,asocial
01JWBYFPPW45DGY3EK9G2K0QW0,29,4,8,1.0,0,0,5,0,8,1.0,asocial
01JWBYFPPW45DGY3EK9G2K0QW0,29,5,8,1.0,0,0,33,0,8,1.0,asocial
01JWBYFPPW45DGY3EK9G2K0QW0,29,6,8,1.0,0,0,41,3,8,1.0,asocial
01JWBYFPPW45DGY3EK9G2K0QW0,29,7,8,1.0,0,0,4,1,8,1.0,asocial
01JWBYFPPW45DGY3EK9G2K0QW0,29,8,8,1.0,25,2,69,6,8,1.0,asocial
01JWBYFPPW45DGY3EK9G2K0QW0,29,9,8,1.0,0,0,24,4,8,1.0,asocial
01JWBYFPPW45DGY3EK9G2K0QW0,30,0,8,0.0,0,0,37,2,8,1.0,asocial
01JWBYFPPW45DGY3EK9G2K0QW0,30,1,8,0.0,0,0,6,1,8,1.0,asocial
01JWBYFPPW45DGY3EK9G2K0QW0,30,2,8,0.0,0,0,5,2,8,1.0,asocial
01JWBYFPPW45DGY3EK9G2K0QW0,30,3,8,0.0,0,0,31,3,8,1.0,asocial
01JWBYFPPW45DGY3EK9G2K0QW0,30,4,8,0.0,0,0,5,0,8,1.0,asocial
01JWBYFPPW45DGY3EK9G2K0QW0,30,5,8,0.0,0,0,34,0,8,1.0,asocial
01JWBYFPPW45DGY3EK9G2K0QW0,30,6,8,0.0,0,0,42,3,8,1.0,asocial
01JWBYFPPW45DGY3EK9G2K0QW0,30,7,8,0.0,0,0,4,1,8,1.0,asocial
01JWBYFPPW45DGY3EK9G2K0QW0,30,8,8,0.0,26,2,71,7,8,1.0,asocial
01JWBYFPPW45DGY3EK9G2K0QW0,30,9,8,0.0,0,0,26,4,8,1.0,asocial
01JWBYFPPW45DGY3EK9G2K0QW0,31,0,8,1.0,0,0,38,2,8,0.0,asocial
01JWBYFPPW45DGY3EK9G2K0QW0,31,1,8,1.0,0,0,6,1,8,0.0,asocial
01JWBYFPPW45DGY3EK9G2K0QW0,31,2,8,1.0,0,0,5,2,8,0.0,asocial
01JWBYFPPW45DGY3EK9G2K0QW0,31,3,8,1.0,0,0,31,4,8,0.0,asocial
01JWBYFPPW45DGY3EK9G2K0QW0,31,4,8,1.0,0,0,5,0,8,0.0,asocial
01JWBYFPPW45DGY3EK9G2K0QW0,31,5,8,1.0,0,0,35,0,8,0.0,asocial
01JWBYFPPW45DGY3EK9G2K0QW0,31,6,8,1.0,0,0,43,4,8,0.0,asocial
01JWBYFPPW45DGY3EK9G2K0QW0,31,7,8,1.0,0,0,4,1,8,0.0,asocial
01JWBYFPPW45DGY3EK9G2K0QW0,31,8,8,1.0,26,3,74,8,8,0.0,asocial
01JWBYFPPW45DGY3EK9G2K0QW0,31,9,8,1.0,0,0,26,5,8,0.0,asocial
01JWBYFPPW45DGY3EK9G2K0QW0,32,0,8,0.0,0,0,39,2,8,1.0,asocial
01JWBYFPPW45DGY3EK9G2K0QW0,32,1,8,0.0,0,0,6,1,8,1.0,asocial
01JWBYFPPW45DGY3EK9G2K0QW0,32,2,8,0.0,0,0,5,2,8,1.0,asocial
01JWBYFPPW45DGY3EK9G2K0QW0,32,3,8,0.0,0,0,32,4,8,1.0,asocial
01JWBYFPPW45DGY3EK9G2K0QW0,32,4,8,0.0,0,0,5,0,8,1.0,asocial
01JWBYFPPW45DGY3EK9G2K0QW0,32,5,8,0.0,0,0,36,0,8,1.0,asocial
01JWBYFPPW45DGY3EK9G2K0QW0,32,6,8,0.0,0,0,45,4,8,1.0,asocial
01JWBYFPPW45DGY3EK9G2K0QW0,32,7,8,0.0,0,0,5,1,8,1.0,asocial
01JWBYFPPW45DGY3EK9G2K0QW0,32,8,8,0.0,27,3,77,8,8,1.0,asocial
01JWBYFPPW45DGY3EK9G2K0QW0,32,9,8,0.0,0,0,27,5,8,1.0,asocial
01JWBYFPPW45DGY3EK9G2K0QW0,33,0,8,1.0,0,0,40,2,8,0.0,asocial
01JWBYFPPW45DGY3EK9G2K0QW0,33,1,8,1.0,0,0,6,1,8,0.0,asocial
01JWBYFPPW45DGY3EK9G2K0QW0,33,2,8,1.0,0,0,5,2,8,0.0,asocial
01JWBYFPPW45DGY3EK9G2K0QW0,33,3,8,1.0,0,0,33,4,8,0.0,asocial
01JWBYFPPW45DGY3EK9G2K0QW0,33,4,8,1.0,0,0,5,0,8,0.0,asocial
01JWBYFPPW45DGY3EK9G2K0QW0,33,5,8,1.0,0,0,37,0,8,0.0,asocial
01JWBYFPPW45DGY3EK9G2K0QW0,33,6,8,1.0,0,0,46,4,8,0.0,asocial
01JWBYFPPW45DGY3EK9G2K0QW0,33,7,8,1.0,0,0,6,1,8,0.0,asocial
01JWBYFPPW45DGY3EK9G2K0QW0,33,8,8,1.0,27,4,79,9,8,0.0,asocial
01JWBYFPPW45DGY3EK9G2K0QW0,33,9,8,1.0,0,0,29,5,8,0.0,asocial
01JWBYFPPW45DGY3EK9G2K0QW0,34,0,3,1.0,0,0,41,2,8,1.0,asocial
01JWBYFPPW45DGY3EK9G2K0QW0,34,1,3,1.0,0,0,6,1,8,1.0,asocial
01JWBYFPPW45DGY3EK9G2K0QW0,34,2,3,1.0,0,0,5,2,8,1.0,asocial
01JWBYFPPW45DGY3EK9G2K0QW0,34,3,3,1.0,0,0,34,4,8,1.0,asocial
01JWBYFPPW45DGY3EK9G2K0QW0,34,4,3,1.0,0,0,6,0,8,1.0,asocial
01JWBYFPPW45DGY3EK9G2K0QW0,34,5,3,1.0,0,0,38,0,8,1.0,asocial
01JWBYFPPW45DGY3EK9G2K0QW0,34,6,3,1.0,0,0,47,4,8,1.0,asocial
01JWBYFPPW45DGY3EK9G2K0QW0,34,7,3,1.0,0,0,7,1,8,1.0,asocial
01JWBYFPPW45DGY3EK9G2K0QW0,34,8,3,1.0,28,4,83,9,8,1.0,asocial
01JWBYFPPW45DGY3EK9G2K0QW0,34,9,3,1.0,0,0,29,5,8,1.0,asocial
01JWBYFPPW45DGY3EK9G2K0QW0,35,0,3,1.0,0,0,42,2,3,1.0,asocial
01JWBYFPPW45DGY3EK9G2K0QW0,35,1,3,1.0,0,0,7,1,3,1.0,asocial
01JWBYFPPW45DGY3EK9G2K0QW0,35,2,3,1.0,0,0,5,2,3,1.0,asocial
01JWBYFPPW45DGY3EK9G2K0QW0,35,3,3,1.0,1,0,36,4,3,1.0,asocial
01JWBYFPPW45DGY3EK9G2K0QW0,35,4,3,1.0,0,0,6,0,3,1.0,asocial
01JWBYFPPW45DGY3EK9G2K0QW0,35,5,3,1.0,0,0,39,0,3,1.0,asocial
01JWBYFPPW45DGY3EK9G2K0QW0,35,6,3,1.0,0,0,48,4,3,1.0,asocial
01JWBYFPPW45DGY3EK9G2K0QW0,35,7,3,1.0,0,0,7,2,3,1.0,asocial
01JWBYFPPW45DGY3EK9G2K0QW0,35,8,3,1.0,28,4,85,9,3,1.0,asocial
01JWBYFPPW45DGY3EK9G2K0QW0,35,9,3,1.0,0,0,30,5,3,1.0,asocial
01JWBYFPPW45DGY3EK9G2K0QW0,36,0,3,1.0,0,0,43,2,3,1.0,asocial
01JWBYFPPW45DGY3EK9G2K0QW0,36,1,3,1.0,0,0,7,1,3,1.0,asocial
01JWBYFPPW45DGY3EK9G2K0QW0,36,2,3,1.0,0,0,6,2,3,1.0,asocial
01JWBYFPPW45DGY3EK9G2K0QW0,36,3,3,1.0,2,0,38,4,3,1.0,asocial
01JWBYFPPW45DGY3EK9G2K0QW0,36,4,3,1.0,0,0,6,0,3,1.0,asocial
01JWBYFPPW45DGY3EK9G2K0QW0,36,5,3,1.0,0,0,40,0,3,1.0,asocial
01JWBYFPPW45DGY3EK9G2K0QW0,36,6,3,1.0,0,0,49,4,3,1.0,asocial
01JWBYFPPW45DGY3EK9G2K0QW0,36,7,3,1.0,0,0,7,2,3,1.0,asocial
01JWBYFPPW45DGY3EK9G2K0QW0,36,8,3,1.0,28,4,86,10,3,1.0,asocial
01JWBYFPPW45DGY3EK9G2K0QW0,36,9,3,1.0,0,0,32,5,3,1.0,asocial
01JWBYFPPW45DGY3EK9G2K0QW0,37,0,3,1.0,0,0,44,2,3,1.0,asocial
01JWBYFPPW45DGY3EK9G2K0QW0,37,1,3,1.0,0,0,7,1,3,1.0,asocial
01JWBYFPPW45DGY3EK9G2K0QW0,37,2,3,1.0,0,0,6,2,3,1.0,asocial
01JWBYFPPW45DGY3EK9G2K0QW0,37,3,3,1.0,3,0,40,4,3,1.0,asocial
01JWBYFPPW45DGY3EK9G2K0QW0,37,4,3,1.0,0,0,6,0,3,1.0,asocial
01JWBYFPPW45DGY3EK9G2K0QW0,37,5,3,1.0,0,0,42,0,3,1.0,asocial
01JWBYFPPW45DGY3EK9G2K0QW0,37,6,3,1.0,0,0,49,5,3,1.0,asocial
01JWBYFPPW45DGY3EK9G2K0QW0,37,7,3,1.0,0,0,7,2,3,1.0,asocial
01JWBYFPPW45DGY3EK9G2K0QW0,37,8,3,1.0,28,4,88,10,3,1.0,asocial
01JWBYFPPW45DGY3EK9G2K0QW0,37,9,3,1.0,0,0,34,5,3,1.0,asocial
01JWBYFPPW45DGY3EK9G2K0QW0,38,0,3,1.0,0,0,44,3,3,1.0,asocial
01JWBYFPPW45DGY3EK9G2K0QW0,38,1,3,1.0,0,0,7,1,3,1.0,asocial
01JWBYFPPW45DGY3EK9G2K0QW0,38,2,3,1.0,0,0,6,2,3,1.0,asocial
01JWBYFPPW45DGY3EK9G2K0QW0,38,3,3,1.0,4,0,41,5,3,1.0,asocial
01JWBYFPPW45DGY3EK9G2K0QW0,38,4,3,1.0,0,0,6,1,3,1.0,asocial
01JWBYFPPW45DGY3EK9G2K0QW0,38,5,3,1.0,0,0,43,0,3,1.0,asocial
01JWBYFPPW45DGY3EK9G2K0QW0,38,6,3,1.0,0,0,50,5,3,1.0,asocial
01JWBYFPPW45DGY3EK9G2K0QW0,38,7,3,1.0,0,0,7,2,3,1.0,asocial
01JWBYFPPW45DGY3EK9G2K0QW0,38,8,3,1.0,28,4,90,11,3,1.0,asocial
01JWBYFPPW45DGY3EK9G2K0QW0,38,9,3,1.0,0,0,34,6,3,1.0,asocial
01JWBYFPPW45DGY3EK9G2K0QW0,39,0,3,1.0,0,0,45,3,3,1.0,asocial
01JWBYFPPW45DGY3EK9G2K0QW0,39,1,3,1.0,0,0,7,1,3,1.0,asocial
01JWBYFPPW45DGY3EK9G2K0QW0,39,2,3,1.0,0,0,6,2,3,1.0,asocial
01JWBYFPPW45DGY3EK9G2K0QW0,39,3,3,1.0,5,0,43,5,3,1.0,asocial
01JWBYFPPW45DGY3EK9G2K0QW0,39,4,3,1.0,0,0,6,1,3,1.0,asocial
01JWBYFPPW45DGY3EK9G2K0QW0,39,5,3,1.0,0,0,45,0,3,1.0,asocial
01JWBYFPPW45DGY3EK9G2K0QW0,39,6,3,1.0,0,0,51,5,3,1.0,asocial
01JWBYFPPW45DGY3EK9G2K0QW0,39,7,3,1.0,0,0,8,2,3,1.0,asocial
01JWBYFPPW45DGY3EK9G2K0QW0,39,8,3,1.0,28,4,93,11,3,1.0,asocial
01JWBYFPPW45DGY3EK9G2K0QW0,39,9,3,1.0,0,0,34,6,3,1.0,asocial
01JWBYFPPW45DGY3EK9G2K0QW0,40,0,3,1.0,0,0,46,3,3,1.0,asocial
01JWBYFPPW45DGY3EK9G2K0QW0,40,1,3,1.0,0,0,7,1,3,1.0,asocial
01JWBYFPPW45DGY3EK9G2K0QW0,40,2,3,1.0,0,0,6,2,3,1.0,asocial
01JWBYFPPW45DGY3EK9G2K0QW0,40,3,3,1.0,6,0,45,5,3,1.0,asocial
01JWBYFPPW45DGY3EK9G2K0QW0,40,4,3,1.0,0,0,7,1,3,1.0,asocial
01JWBYFPPW45DGY3EK9G2K0QW0,40,5,3,1.0,0,0,47,0,3,1.0,asocial
01JWBYFPPW45DGY3EK9G2K0QW0,40,6,3,1.0,0,0,52,5,3,1.0,asocial
01JWBYFPPW45DGY3EK9G2K0QW0,40,7,3,1.0,0,0,8,2,3,1.0,asocial
01JWBYFPPW45DGY3EK9G2K0QW0,40,8,3,1.0,28,4,96,11,3,1.0,asocial
01JWBYFPPW45DGY3EK9G2K0QW0,40,9,3,1.0,0,0,34,6,3,1.0,asocial
01JWBYFPPW45DGY3EK9G2K0QW0,41,0,3,1.0,0,0,48,3,3,1.0,asocial
01JWBYFPPW45DGY3EK9G2K0QW0,41,1,3,1.0,0,0,8,1,3,1.0,asocial
01JWBYFPPW45DGY3EK9G2K0QW0,41,2,3,1.0,0,0,6,2,3,1.0,asocial
01JWBYFPPW45DGY3EK9G2K0QW0,41,3,3,1.0,7,0,47,5,3,1.0,asocial
01JWBYFPPW45DGY3EK9G2K0QW0,41,4,3,1.0,0,0,7,1,3,1.0,asocial
01JWBYFPPW45DGY3EK9G2K0QW0,41,5,3,1.0,0,0,48,0,3,1.0,asocial
01JWBYFPPW45DGY3EK9G2K0QW0,41,6,3,1.0,0,0,52,6,3,1.0,asocial
01JWBYFPPW45DGY3EK9G2K0QW0,41,7,3,1.0,0,0,8,2,3,1.0,asocial
01JWBYFPPW45DGY3EK9G2K0QW0,41,8,3,1.0,28,4,99,11,3,1.0,asocial
01JWBYFPPW45DGY3EK9G2K0QW0,41,9,3,1.0,0,0,34,6,3,1.0,asocial
01JWBYFPPW45DGY3EK9G2K0QW0,42,0,3,1.0,0,0,50,3,3,1.0,asocial
01JWBYFPPW45DGY3EK9G2K0QW0,42,1,3,1.0,0,0,8,1,3,1.0,asocial
01JWBYFPPW45DGY3EK9G2K0QW0,42,2,3,1.0,0,0,6,2,3,1.0,asocial
01JWBYFPPW45DGY3EK9G2K0QW0,42,3,3,1.0,8,0,49,5,3,1.0,asocial
01JWBYFPPW45DGY3EK9G2K0QW0,42,4,3,1.0,0,0,7,1,3,1.0,asocial
01JWBYFPPW45DGY3EK9G2K0QW0,42,5,3,1.0,0,0,49,0,3,1.0,asocial
01JWBYFPPW45DGY3EK9G2K0QW0,42,6,3,1.0,0,0,53,7,3,1.0,asocial
01JWBYFPPW45DGY3EK9G2K0QW0,42,7,3,1.0,0,0,8,2,3,1.0,asocial
01JWBYFPPW45DGY3EK9G2K0QW0,42,8,3,1.0,28,4,101,12,3,1.0,asocial
01JWBYFPPW45DGY3EK9G2K0QW0,42,9,3,1.0,0,0,34,6,3,1.0,asocial
01JWBYFPPW45DGY3EK9G2K0QW0,43,0,5,1.0,0,0,52,3,3,1.0,asocial
01JWBYFPPW45DGY3EK9G2K0QW0,43,1,5,1.0,0,0,9,1,3,1.0,asocial
01JWBYFPPW45DGY3EK9G2K0QW0,43,2,5,1.0,0,0,6,2,3,1.0,asocial
01JWBYFPPW45DGY3EK9G2K0QW0,43,3,5,1.0,9,0,52,5,3,1.0,asocial
01JWBYFPPW45DGY3EK9G2K0QW0,43,4,5,1.0,0,0,7,1,3,1.0,asocial
01JWBYFPPW45DGY3EK9G2K0QW0,43,5,5,1.0,0,0,50,0,3,1.0,asocial
01JWBYFPPW45DGY3EK9G2K0QW0,43,6,5,1.0,0,0,54,7,3,1.0,asocial
01JWBYFPPW45DGY3EK9G2K0QW0,43,7,5,1.0,0,0,8,2,3,1.0,asocial
01JWBYFPPW45DGY3EK9G2K0QW0,43,8,5,1.0,28,4,103,12,3,1.0,asocial
01JWBYFPPW45DGY3EK9G2K0QW0,43,9,5,1.0,0,0,34,6,3,1.0,asocial
01JWBYFPPW45DGY3EK9G2K0QW0,44,0,5,1.0,0,0,53,3,5,1.0,asocial
01JWBYFPPW45DGY3EK9G2K0QW0,44,1,5,1.0,0,0,9,1,5,1.0,asocial
01JWBYFPPW45DGY3EK9G2K0QW0,44,2,5,1.0,0,0,6,2,5,1.0,asocial
01JWBYFPPW45DGY3EK9G2K0QW0,44,3,5,1.0,9,0,52,6,5,1.0,asocial
01JWBYFPPW45DGY3EK9G2K0QW0,44,4,5,1.0,0,0,7,1,5,1.0,asocial
01JWBYFPPW45DGY3EK9G2K0QW0,44,5,5,1.0,1,0,54,0,5,1.0,asocial
01JWBYFPPW45DGY3EK9G2K0QW0,44,6,5,1.0,0,0,55,7,5,1.0,asocial
01JWBYFPPW45DGY3EK9G2K0QW0,44,7,5,1.0,0,0,8,2,5,1.0,asocial
01JWBYFPPW45DGY3EK9G2K0QW0,44,8,5,1.0,28,4,106,12,5,1.0,asocial
01JWBYFPPW45DGY3EK9G2K0QW0,44,9,5,1.0,0,0,34,6,5,1.0,asocial
01JWBYFPPW45DGY3EK9G2K0QW0,45,0,5,1.0,0,0,53,4,5,1.0,asocial
01JWBYFPPW45DGY3EK9G2K0QW0,45,1,5,1.0,0,0,10,1,5,1.0,asocial
01JWBYFPPW45DGY3EK9G2K0QW0,45,2,5,1.0,0,0,6,2,5,1.0,asocial
01JWBYFPPW45DGY3EK9G2K0QW0,45,3,5,1.0,9,0,53,6,5,1.0,asocial
01JWBYFPPW45DGY3EK9G2K0QW0,45,4,5,1.0,0,0,7,1,5,1.0,asocial
01JWBYFPPW45DGY3EK9G2K0QW0,45,5,5,1.0,2,0,56,1,5,1.0,asocial
01JWBYFPPW45DGY3EK9G2K0QW0,45,6,5,1.0,0,0,56,7,5,1.0,asocial
01JWBYFPPW45DGY3EK9G2K0QW0,45,7,5,1.0,0,0,8,2,5,1.0,asocial
01JWBYFPPW45DGY3EK9G2K0QW0,45,8,5,1.0,28,4,108,12,5,1.0,asocial
01JWBYFPPW45DGY3EK9G2K0QW0,45,9,5,1.0,0,0,35,6,5,1.0,asocial
01JWBYFPPW45DGY3EK9G2K0QW0,46,0,5,1.0,0,0,54,4,5,1.0,asocial
01JWBYFPPW45DGY3EK9G2K0QW0,46,1,5,1.0,0,0,10,1,5,1.0,asocial
01JWBYFPPW45DGY3EK9G2K0QW0,46,2,5,1.0,0,0,6,2,5,1.0,asocial
01JWBYFPPW45DGY3EK9G2K0QW0,46,3,5,1.0,9,0,54,6,5,1.0,asocial
01JWBYFPPW45DGY3EK9G2K0QW0,46,4,5,1.0,0,0,7,1,5,1.0,asocial
01JWBYFPPW45DGY3EK9G2K0QW0,46,5,5,1.0,3,0,60,1,5,1.0,asocial
01JWBYFPPW45DGY3EK9G2K0QW0,46,6,5,1.0,0,0,58,7,5,1.0,asocial
01JWBYFPPW45DGY3EK9G2K0QW0,46,7,5,1.0,0,0,8,2,5,1.0,asocial
01JWBYFPPW45DGY3EK9G2K0QW0,46,8,5,1.0,28,4,110,12,5,1.0,asocial
01JWBYFPPW45DGY3EK9G2K0QW0,46,9,5,1.0,0,0,35,6,5,1.0,asocial
01JWBYFPPW45DGY3EK9G2K0QW0,47,0,5,1.0,0,0,55,4,5,1.0,asocial
01JWBYFPPW45DGY3EK9G2K0QW0,47,1,5,1.0,0,0,10,1,5,1.0,asocial
01JWBYFPPW45DGY3EK9G2K0QW0,47,2,5,1.0,0,0,6,2,5,1.0,asocial
01JWBYFPPW45DGY3EK9G2K0QW0,47,3,5,1.0,9,0,55,6,5,1.0,asocial
01JWBYFPPW45DGY3EK9G2K0QW0,47,4,5,1.0,0,0,7,1,5,1.0,asocial
01JWBYFPPW45DGY3EK9G2K0QW0,47,5,5,1.0,4,0,63,2,5,1.0,asocial
01JWBYFPPW45DGY3EK9G2K0QW0,47,6,5,1.0,0,0,59,7,5,1.0,asocial
01JWBYFPPW45DGY3EK9G2K0QW0,47,7,5,1.0,0,0,8,2,5,1.0,asocial
01JWBYFPPW45DGY3EK9G2K0QW0,47,8,5,1.0,28,4,112,12,5,1.0,asocial
01JWBYFPPW45DGY3EK9G2K0QW0,47,9,5,1.0,0,0,36,6,5,1.0,asocial
01JWBYFPPW45DGY3EK9G2K0QW0,48,0,5,1.0,0,0,57,4,5,1.0,asocial
01JWBYFPPW45DGY3EK9G2K0QW0,48,1,5,1.0,0,0,10,1,5,1.0,asocial
01JWBYFPPW45DGY3EK9G2K0QW0,48,2,5,1.0,0,0,7,2,5,1.0,asocial
01JWBYFPPW45DGY3EK9G2K0QW0,48,3,5,1.0,9,0,56,6,5,1.0,asocial
01JWBYFPPW45DGY3EK9G2K0QW0,48,4,5,1.0,0,0,7,1,5,1.0,asocial
01JWBYFPPW45DGY3EK9G2K0QW0,48,5,5,1.0,5,0,65,2,5,1.0,asocial
01JWBYFPPW45DGY3EK9G2K0QW0,48,6,5,1.0,0,0,60,7,5,1.0,asocial
01JWBYFPPW45DGY3EK9G2K0QW0,48,7,5,1.0,0,0,8,2,5,1.0,asocial
01JWBYFPPW45DGY3EK9G2K0QW0,48,8,5,1.0,28,4,114,12,5,1.0,asocial
01JWBYFPPW45DGY3EK9G2K0QW0,48,9,5,1.0,0,0,36,7,5,1.0,asocial
01JWBYFPPW45DGY3EK9G2K0QW0,49,0,5,1.0,0,0,59,4,5,1.0,asocial
01JWBYFPPW45DGY3EK9G2K0QW0,49,1,5,1.0,0,0,10,1,5,1.0,asocial
01JWBYFPPW45DGY3EK9G2K0QW0,49,2,5,1.0,0,0,7,2,5,1.0,asocial
01JWBYFPPW45DGY3EK9G2K0QW0,49,3,5,1.0,9,0,57,6,5,1.0,asocial
01JWBYFPPW45DGY3EK9G2K0QW0,49,4,5,1.0,0,0,8,1,5,1.0,asocial
01JWBYFPPW45DGY3EK9G2K0QW0,49,5,5,1.0,6,0,67,2,5,1.0,asocial
01JWBYFPPW45DGY3EK9G2K0QW0,49,6,5,1.0,0,0,62,7,5,1.0,asocial
01JWBYFPPW45DGY3EK9G2K0QW0,49,7,5,1.0,0,0,8,2,5,1.0,asocial
01JWBYFPPW45DGY3EK9G2K0QW0,49,8,5,1.0,28,4,116,12,5,1.0,asocial
01JWBYFPPW45DGY3EK9G2K0QW0,49,9,5,1.0,0,0,36,7,5,1.0,asocial
01JWBYFPPW45DGY3EK9G2K0QW0,50,0,5,1.0,0,0,62,4,5,1.0,asocial
01JWBYFPPW45DGY3EK9G2K0QW0,50,1,5,1.0,0,0,10,1,5,1.0,asocial
01JWBYFPPW45DGY3EK9G2K0QW0,50,2,5,1.0,0,0,7,2,5,1.0,asocial
01JWBYFPPW45DGY3EK9G2K0QW0,50,3,5,1.0,9,0,58,6,5,1.0,asocial
01JWBYFPPW45DGY3EK9G2K0QW0,50,4,5,1.0,0,0,8,1,5,1.0,asocial
01JWBYFPPW45DGY3EK9G2K0QW0,50,5,5,1.0,7,0,69,2,5,1.0,asocial
01JWBYFPPW45DGY3EK9G2K0QW0,50,6,5,1.0,0,0,64,7,5,1.0,asocial
01JWBYFPPW45DGY3EK9G2K0QW0,50,7,5,1.0,0,0,8,2,5,1.0,asocial
01JWBYFPPW45DGY3EK9G2K0QW0,50,8,5,1.0,28,4,118,12,5,1.0,asocial
01JWBYFPPW45DGY3EK9G2K0QW0,50,9,5,1.0,0,0,36,7,5,1.0,asocial
01JWBYFPPW45DGY3EK9G2K0QW0,51,0,5,1.0,0,0,64,4,5,1.0,asocial
01JWBYFPPW45DGY3EK9G2K0QW0,51,1,5,1.0,0,0,10,1,5,1.0,asocial
01JWBYFPPW45DGY3EK9G2K0QW0,51,2,5,1.0,0,0,7,2,5,1.0,asocial
01JWBYFPPW45DGY3EK9G2K0QW0,51,3,5,1.0,9,0,59,6,5,1.0,asocial
01JWBYFPPW45DGY3EK9G2K0QW0,51,4,5,1.0,0,0,8,1,5,1.0,asocial
01JWBYFPPW45DGY3EK9G2K0QW0,51,5,5,1.0,8,0,72,2,5,1.0,asocial
01JWBYFPPW45DGY3EK9G2K0QW0,51,6,5,1.0,0,0,65,7,5,1.0,asocial
01JWBYFPPW45DGY3EK9G2K0QW0,51,7,5,1.0,0,0,8,3,5,1.0,asocial
01JWBYFPPW45DGY3EK9G2K0QW0,51,8,5,1.0,28,4,120,12,5,1.0,asocial
01JWBYFPPW45DGY3EK9G2K0QW0,51,9,5,1.0,0,0,36,7,5,1.0,asocial
01JWBYFSJ01MDZ3R21Q700YHVF,1,0,3,1.0,0,0,0,0,-1,,asocial
01JWBYFSJ01MDZ3R21Q700YHVF,1,1,3,1.0,0,0,0,0,-1,,asocial
01JWBYFSJ01MDZ3R21Q700YHVF,1,2,3,1.0,0,0,0,0,-1,,asocial
01JWBYFSJ01MDZ3R21Q700YHVF,1,3,3,1.0,0,0,0,0,-1,,asocial
01JWBYFSJ01MDZ3R21Q700YHVF,1,4,3,1.0,0,0,0,0,-1,,asocial
01JWBYFSJ01MDZ3R21Q700YHVF,1,5,3,1.0,0,0,0,0,-1,,asocial
01JWBYFSJ01MDZ3R21Q700YHVF,1,6,3,1.0,0,0,0,0,-1,,asocial
01JWBYFSJ01MDZ3R21Q700YHVF,1,7,3,1.0,0,0,0,0,-1,,asocial
01JWBYFSJ01MDZ3R21Q700YHVF,1,8,3,1.0,0,0,0,0,-1,,asocial
01JWBYFSJ01MDZ3R21Q700YHVF,1,9,3,1.0,0,0,0,0,-1,,asocial
01JWBYFSJ01MDZ3R21Q700YHVF,2,0,3,1.0,0,0,1,0,3,1.0,asocial
01JWBYFSJ01MDZ3R21Q700YHVF,2,1,3,1.0,0,0,1,0,3,1.0,asocial
01JWBYFSJ01MDZ3R21Q700YHVF,2,2,3,1.0,0,0,0,1,3,1.0,asocial
01JWBYFSJ01MDZ3R21Q700YHVF,2,3,3,1.0,1,0,1,0,3,1.0,asocial
01JWBYFSJ01MDZ3R21Q700YHVF,2,4,3,1.0,0,0,1,0,3,1.0,asocial
01JWBYFSJ01MDZ3R21Q700YHVF,2,5,3,1.0,0,0,0,0,3,1.0,asocial
01JWBYFSJ01MDZ3R21Q700YHVF,2,6,3,1.0,0,0,1,0,3,1.0,asocial
01JWBYFSJ01MDZ3R21Q700YHVF,2,7,3,1.0,0,0,1,0,3,1.0,asocial
01JWBYFSJ01MDZ3R21Q700YHVF,2,8,3,1.0,0,0,0,0,3,1.0,asocial
01JWBYFSJ01MDZ3R21Q700YHVF,2,9,3,1.0,0,0,1,0,3,1.0,asocial
01JWBYFSJ01MDZ3R21Q700YHVF,3,0,3,1.0,0,0,3,0,3,1.0,asocial
01JWBYFSJ01MDZ3R21Q700YHVF,3,1,3,1.0,0,0,1,1,3,1.0,asocial
01JWBYFSJ01MDZ3R21Q700YHVF,3,2,3,1.0,0,0,0,1,3,1.0,asocial
01JWBYFSJ01MDZ3R21Q700YHVF,3,3,3,1.0,2,0,2,0,3,1.0,asocial
01JWBYFSJ01MDZ3R21Q700YHVF,3,4,3,1.0,0,0,2,0,3,1.0,asocial
01JWBYFSJ01MDZ3R21Q700YHVF,3,5,3,1.0,0,0,0,0,3,1.0,asocial
01JWBYFSJ01MDZ3R21Q700YHVF,3,6,3,1.0,0,0,1,0,3,1.0,asocial
01JWBYFSJ01MDZ3R21Q700YHVF,3,7,3,1.0,0,0,1,0,3,1.0,asocial
01JWBYFSJ01MDZ3R21Q700YHVF,3,8,3,1.0,0,0,2,0,3,1.0,asocial
01JWBYFSJ01MDZ3R21Q700YHVF,3,9,3,1.0,0,0,3,0,3,1.0,asocial
01JWBYFSJ01MDZ3R21Q700YHVF,4,0,3,1.0,0,0,4,0,3,1.0,asocial
01JWBYFSJ01MDZ3R21Q700YHVF,4,1,3,1.0,0,0,1,1,3,1.0,asocial
01JWBYFSJ01MDZ3R21Q700YHVF,4,2,3,1.0,0,0,1,1,3,1.0,asocial
01JWBYFSJ01MDZ3R21Q700YHVF,4,3,3,1.0,3,0,3,0,3,1.0,asocial
01JWBYFSJ01MDZ3R21Q700YHVF,4,4,3,1.0,0,0,2,0,3,1.0,asocial
01JWBYFSJ01MDZ3R21Q700YHVF,4,5,3,1.0,0,0,0,0,3,1.0,asocial
01JWBYFSJ01MDZ3R21Q700YHVF,4,6,3,1.0,0,0,4,0,3,1.0,asocial
01JWBYFSJ01MDZ3R21Q700YHVF,4,7,3,1.0,0,0,1,0,3,1.0,asocial
01JWBYFSJ01MDZ3R21Q700YHVF,4,8,3,1.0,0,0,4,0,3,1.0,asocial
01JWBYFSJ01MDZ3R21Q700YHVF,4,9,3,1.0,0,0,3,1,3,1.0,asocial
01JWBYFSJ01MDZ3R21Q700YHVF,5,0,3,1.0,0,0,6,0,3,1.0,asocial
01JWBYFSJ01MDZ3R21Q700YHVF,5,1,3,1.0,0,0,1,1,3,1.0,asocial
01JWBYFSJ01MDZ3R21Q700YHVF,5,2,3,1.0,0,0,1,1,3,1.0,asocial
01JWBYFSJ01MDZ3R21Q700YHVF,5,3,3,1.0,4,0,4,0,3,1.0,asocial
01JWBYFSJ01MDZ3R21Q700YHVF,5,4,3,1.0,0,0,2,0,3,1.0,asocial
01JWBYFSJ01MDZ3R21Q700YHVF,5,5,3,1.0,0,0,2,0,3,1.0,asocial
01JWBYFSJ01MDZ3R21Q700YHVF,5,6,3,1.0,0,0,6,0,3,1.0,asocial
01JWBYFSJ01MDZ3R21Q700YHVF,5,7,3,1.0,0,0,1,0,3,1.0,asocial
01JWBYFSJ01MDZ3R21Q700YHVF,5,8,3,1.0,0,0,6,0,3,1.0,asocial
01JWBYFSJ01MDZ3R21Q700YHVF,5,9,3,1.0,0,0,4,1,3,1.0,asocial
01JWBYFSJ01MDZ3R21Q700YHVF,6,0,3,1.0,0,0,8,0,3,1.0,asocial
01JWBYFSJ01MDZ3R21Q700YHVF,6,1,3,1.0,0,0,1,1,3,1.0,asocial
01JWBYFSJ01MDZ3R21Q700YHVF,6,2,3,1.0,0,0,1,1,3,1.0,asocial
01JWBYFSJ01MDZ3R21Q700YHVF,6,3,3,1.0,5,0,5,0,3,1.0,asocial
01JWBYFSJ01MDZ3R21Q700YHVF,6,4,3,1.0,0,0,2,0,3,1.0,asocial
01JWBYFSJ01MDZ3R21Q700YHVF,6,5,3,1.0,0,0,3,0,3,1.0,asocial
01JWBYFSJ01MDZ3R21Q700YHVF,6,6,3,1.0,0,0,8,0,3,1.0,asocial
01JWBYFSJ01MDZ3R21Q700YHVF,6,7,3,1.0,0,0,1,0,3,1.0,asocial
01JWBYFSJ01MDZ3R21Q700YHVF,6,8,3,1.0,0,0,7,1,3,1.0,asocial
01JWBYFSJ01MDZ3R21Q700YHVF,6,9,3,1.0,0,0,6,1,3,1.0,asocial
01JWBYFSJ01MDZ3R21Q700YHVF,7,0,3,1.0,0,0,10,0,3,1.0,asocial
01JWBYFSJ01MDZ3R21Q700YHVF,7,1,3,1.0,0,0,1,1,3,1.0,asocial
01JWBYFSJ01MDZ3R21Q700YHVF,7,2,3,1.0,0,0,2,1,3,1.0,asocial
01JWBYFSJ01MDZ3R21Q700YHVF,7,3,3,1.0,6,0,6,0,3,1.0,asocial
01JWBYFSJ01MDZ3R21Q700YHVF,7,4,3,1.0,0,0,3,0,3,1.0,asocial
01JWBYFSJ01MDZ3R21Q700YHVF,7,5,3,1.0,0,0,4,0,3,1.0,asocial
01JWBYFSJ01MDZ3R21Q700YHVF,7,6,3,1.0,0,0,9,0,3,1.0,asocial
01JWBYFSJ01MDZ3R21Q700YHVF,7,7,3,1.0,0,0,1,0,3,1.0,asocial
01JWBYFSJ01MDZ3R21Q700YHVF,7,8,3,1.0,0,0,9,1,3,1.0,asocial
01JWBYFSJ01MDZ3R21Q700YHVF,7,9,3,1.0,0,0,7,1,3,1.0,asocial
01JWBYFSJ01MDZ3R21Q700YHVF,8,0,3,1.0,0,0,13,0,3,1.0,asocial
01JWBYFSJ01MDZ3R21Q700YHVF,8,1,3,1.0,0,0,1,1,3,1.0,asocial
01JWBYFSJ01MDZ3R21Q700YHVF,8,2,3,1.0,0,0,2,1,3,1.0,asocial
01JWBYFSJ01MDZ3R21Q700YHVF,8,3,3,1.0,7,0,7,0,3,1.0,asocial
01JWBYFSJ01MDZ3R21Q700YHVF,8,4,3,1.0,0,0,3,0,3,1.0,asocial
01JWBYFSJ01MDZ3R21Q700YHVF,8,5,3,1.0,0,0,5,0,3,1.0,asocial
01JWBYFSJ01MDZ3R21Q700YHVF,8,6,3,1.0,0,0,10,0,3,1.0,asocial
01JWBYFSJ01MDZ3R21Q700YHVF,8,7,3,1.0,0,0,2,0,3,1.0,asocial
01JWBYFSJ01MDZ3R21Q700YHVF,8,8,3,1.0,0,0,11,1,3,1.0,asocial
01JWBYFSJ01MDZ3R21Q700YHVF,8,9,3,1.0,0,0,7,2,3,1.0,asocial
01JWBYFSJ01MDZ3R21Q700YHVF,9,0,3,1.0,0,0,15,0,3,1.0,asocial
01JWBYFSJ01MDZ3R21Q700YHVF,9,1,3,1.0,0,0,1,1,3,1.0,asocial
01JWBYFSJ01MDZ3R21Q700YHVF,9,2,3,1.0,0,0,2,1,3,1.0,asocial
01JWBYFSJ01MDZ3R21Q700YHVF,9,3,3,1.0,8,0,8,1,3,1.0,asocial
01JWBYFSJ01MDZ3R21Q700YHVF,9,4,3,1.0,0,0,3,0,3,1.0,asocial
01JWBYFSJ01MDZ3R21Q700YHVF,9,5,3,1.0,0,0,6,0,3,1.0,asocial
01JWBYFSJ01MDZ3R21Q700YHVF,9,6,3,1.0,0,0,11,0,3,1.0,asocial
01JWBYFSJ01MDZ3R21Q700YHVF,9,7,3,1.0,0,0,2,0,3,1.0,asocial
01JWBYFSJ01MDZ3R21Q700YHVF,9,8,3,1.0,0,0,12,2,3,1.0,asocial
01JWBYFSJ01MDZ3R21Q700YHVF,9,9,3,1.0,0,0,8,3,3,1.0,asocial
01JWBYFSJ01MDZ3R21Q700YHVF,10,0,3,1.0,0,0,16,0,3,1.0,asocial
01JWBYFSJ01MDZ3R21Q700YHVF,10,1,3,1.0,0,0,2,1,3,1.0,asocial
01JWBYFSJ01MDZ3R21Q700YHVF,10,2,3,1.0,0,0,2,1,3,1.0,asocial
01JWBYFSJ01MDZ3R21Q700YHVF,10,3,3,1.0,9,0,9,1,3,1.0,asocial
01JWBYFSJ01MDZ3R21Q700YHVF,10,4,3,1.0,0,0,3,0,3,1.0,asocial
01JWBYFSJ01MDZ3R21Q700YHVF,10,5,3,1.0,0,0,8,0,3,1.0,asocial
01JWBYFSJ01MDZ3R21Q700YHVF,10,6,3,1.0,0,0,13,0,3,1.0,asocial
01JWBYFSJ01MDZ3R21Q700YHVF,10,7,3,1.0,0,0,2,0,3,1.0,asocial
01JWBYFSJ01MDZ3R21Q700YHVF,10,8,3,1.0,0,0,14,2,3,1.0,asocial
01JWBYFSJ01MDZ3R21Q700YHVF,10,9,3,1.0,0,0,8,4,3,1.0,asocial
01JWBYFSJ01MDZ3R21Q700YHVF,11,0,3,0.0,0,0,17,0,3,1.0,asocial
01JWBYFSJ01MDZ3R21Q700YHVF,11,1,3,0.0,0,0,2,1,3,1.0,asocial
01JWBYFSJ01MDZ3R21Q700YHVF,11,2,3,0.0,0,0,2,1,3,1.0,asocial
01JWBYFSJ01MDZ3R21Q700YHVF,11,3,3,0.0,10,0,10,1,3,1.0,asocial
01JWBYFSJ01MDZ3R21Q700YHVF,11,4,3,0.0,0,0,3,0,3,1.0,asocial
01JWBYFSJ01MDZ3R21Q700YHVF,11,5,3,0.0,0,0,10,0,3,1.0,asocial
01JWBYFSJ01MDZ3R21Q700YHVF,11,6,3,0.0,0,0,14,0,3,1.0,asocial
01JWBYFSJ01MDZ3R21Q700YHVF,11,7,3,0.0,0,0,2,0,3,1.0,asocial
01JWBYFSJ01MDZ3R21Q700YHVF,11,8,3,0.0,0,0,17,2,3,1.0,asocial
01JWBYFSJ01MDZ3R21Q700YHVF,11,9,3,0.0,0,0,10,4,3,1.0,asocial
01JWBYFSJ01MDZ3R21Q700YHVF,12,0,3,1.0,0,0,18,0,3,0.0,asocial
01JWBYFSJ01MDZ3R21Q700YHVF,12,1,3,1.0,0,0,2,1,3,0.0,asocial
01JWBYFSJ01MDZ3R21Q700YHVF,12,2,3,1.0,0,0,2,1,3,0.0,asocial
01JWBYFSJ01MDZ3R21Q700YHVF,12,3,3,1.0,10,1,11,2,3,0.0,asocial
01JWBYFSJ01MDZ3R21Q700YHVF,12,4,3,1.0,0,0,4,0,3,0.0,asocial
01JWBYFSJ01MDZ3R21Q700YHVF,12,5,3,1.0,0,0,11,0,3,0.0,asocial
01JWBYFSJ01MDZ3R21Q700YHVF,12,6,3,1.0,0,0,15,0,3,0.0,asocial
01JWBYFSJ01MDZ3R21Q700YHVF,12,7,3,1.0,0,0,2,0,3,0.0,asocial
01JWBYFSJ01MDZ3R21Q700YHVF,12,8,3,1.0,0,0,20,2,3,0.0,asocial
01JWBYFSJ01MDZ3R21Q700YHVF,12,9,3,1.0,0,0,11,4,3,0.0,asocial
01JWBYFSJ01MDZ3R21Q700YHVF,13,0,3,1.0,0,0,19,0,3,1.0,asocial
01JWBYFSJ01MDZ3R21Q700YHVF,13,1,3,1.0,0,0,2,1,3,1.0,asocial
01JWBYFSJ01MDZ3R21Q700YHVF,13,2,3,1.0,0,0,2,1,3,1.0,asocial
01JWBYFSJ01MDZ3R21Q700YHVF,13,3,3,1.0,11,1,12,2,3,1.0,asocial
01JWBYFSJ01MDZ3R21Q700YHVF,13,4,3,1.0,0,0,4,0,3,1.0,asocial
01JWBYFSJ01MDZ3R21Q700YHVF,13,5,3,1.0,0,0,12,0,3,1.0,asocial
01JWBYFSJ01MDZ3R21Q700YHVF,13,6,3,1.0,0,0,17,0,3,1.0,asocial
01JWBYFSJ01MDZ3R21Q700YHVF,13,7,3,1.0,0,0,3,0,3,1.0,asocial
01JWBYFSJ01MDZ3R21Q700YHVF,13,8,3,1.0,0,0,22,4,3,1.0,asocial
01JWBYFSJ01MDZ3R21Q700YHVF,13,9,3,1.0,0,0,11,4,3,1.0,asocial
01JWBYFSJ01MDZ3R21Q700YHVF,14,0,3,1.0,0,0,20,0,3,1.0,asocial
01JWBYFSJ01MDZ3R21Q700YHVF,14,1,3,1.0,0,0,3,1,3,1.0,asocial
01JWBYFSJ01MDZ3R21Q700YHVF,14,2,3,1.0,0,0,2,1,3,1.0,asocial
01JWBYFSJ01MDZ3R21Q700YHVF,14,3,3,1.0,12,1,13,2,3,1.0,asocial
01JWBYFSJ01MDZ3R21Q700YHVF,14,4,3,1.0,0,0,4,0,3,1.0,asocial
01JWBYFSJ01MDZ3R21Q700YHVF,14,5,3,1.0,0,0,13,0,3,1.0,asocial
01JWBYFSJ01MDZ3R21Q700YHVF,14,6,3,1.0,0,0,18,0,3,1.0,asocial
01JWBYFSJ01MDZ3R21Q700YHVF,14,7,3,1.0,0,0,3,0,3,1.0,asocial
01JWBYFSJ01MDZ3R21Q700YHVF,14,8,3,1.0,0,0,25,4,3,1.0,asocial
01JWBYFSJ01MDZ3R21Q700YHVF,14,9,3,1.0,0,0,12,4,3,1.0,asocial
01JWBYFSJ01MDZ3R21Q700YHVF,15,0,3,1.0,0,0,21,0,3,1.0,asocial
01JWBYFSJ01MDZ3R21Q700YHVF,15,1,3,1.0,0,0,3,1,3,1.0,asocial
01JWBYFSJ01MDZ3R21Q700YHVF,15,2,3,1.0,0,0,2,1,3,1.0,asocial
01JWBYFSJ01MDZ3R21Q700YHVF,15,3,3,1.0,13,1,14,2,3,1.0,asocial
01JWBYFSJ01MDZ3R21Q700YHVF,15,4,3,1.0,0,0,4,0,3,1.0,asocial
