participant_id,round,arm,choice,reward,own_success,own_failure,group_success,group_failure,prev_choice,prev_reward,condition
01JTS6YPD6RY5G40K4WRD8WMTP,1,0,7,1.0,0,0,0,0,-1,,asocial
01JTS6YPD6RY5G40K4WRD8WMTP,1,1,7,1.0,0,0,0,0,-1,,asocial
01JTS6YPD6RY5G40K4WRD8WMTP,1,2,7,1.0,0,0,0,0,-1,,asocial
01JTS6YPD6RY5G40K4WRD8WMTP,1,3,7,1.0,0,0,0,0,-1,,asocial
01JTS6YPD6RY5G40K4WRD8WMTP,1,4,7,1.0,0,0,0,0,-1,,asocial
01JTS6YPD6RY5G40K4WRD8WMTP,1,5,7,1.0,0,0,0,0,-1,,asocial
01JTS6YPD6RY5G40K4WRD8WMTP,1,6,7,1.0,0,0,0,0,-1,,asocial
01JTS6YPD6RY5G40K4WRD8WMTP,1,7,7,1.0,0,0,0,0,-1,,asocial
01JTS6YPD6RY5G40K4WRD8WMTP,1,8,7,1.0,0,0,0,0,-1,,asocial
01JTS6YPD6RY5G40K4WRD8WMTP,1,9,7,1.0,0,0,0,0,-1,,asocial
01JTS6YPD6RY5G40K4WRD8WMTP,2,0,7,1.0,0,0,1,0,7,1.0,asocial
01JTS6YPD6RY5G40K4WRD8WMTP,2,1,7,1.0,0,0,1,0,7,1.0,asocial
01JTS6YPD6RY5G40K4WRD8WMTP,2,2,7,1.0,0,0,1,0,7,1.0,asocial
01JTS6YPD6RY5G40K4WRD8WMTP,2,3,7,1.0,0,0,1,0,7,1.0,asocial
01JTS6YPD6RY5G40K4WRD8WMTP,2,4,7,1.0,0,0,0,1,7,1.0,asocial
01JTS6YPD6RY5G40K4WRD8WMTP,2,5,7,1.0,0,0,1,0,7,1.0,asocial
01JTS6YPD6RY5G40K4WRD8WMTP,2,6,7,1.0,0,0,1,0,7,1.0,asocial
01JTS6YPD6RY5G40K4WRD8WMTP,2,7,7,1.0,1,0,1,0,7,1.0,asocial
01JTS6YPD6RY5G40K4WRD8WMTP,2,8,7,1.0,0,0,1,0,7,1.0,asocial
01JTS6YPD6RY5G40K4WRD8WMTP,2,9,7,1.0,0,0,1,0,7,1.0,asocial
01JTS6YPD6RY5G40K4WRD8WMTP,3,0,7,0.0,0,0,2,0,7,1.0,asocial
01JTS6YPD6RY5G40K4WRD8WMTP,3,1,7,0.0,0,0,1,1,7,1.0,asocial
01JTS6YPD6RY5G40K4WRD8WMTP,3,2,7,0.0,0,0,1,1,7,1.0,asocial
01JTS6YPD6RY5G40K4WRD8WMTP,3,3,7,0.0,0,0,1,0,7,1.0,asocial
01JTS6YPD6RY5G40K4WRD8WMTP,3,4,7,0.0,0,0,0,2,7,1.0,asocial
01JTS6YPD6RY5G40K4WRD8WMTP,3,5,7,0.0,0,0,2,0,7,1.0,asocial
01JTS6YPD6RY5G40K4WRD8WMTP,3,6,7,0.0,0,0,2,0,7,1.0,asocial
01JTS6YPD6RY5G40K4WRD8WMTP,3,7,7,0.0,2,0,2,0,7,1.0,asocial
01JTS6YPD6RY5G40K4WRD8WMTP,3,8,7,0.0,0,0,2,0,7,1.0,asocial
01JTS6YPD6RY5G40K4WRD8WMTP,3,9,7,0.0,0,0,1,0,7,1.0,asocial
01JTS6YPD6RY5G40K4WRD8WMTP,4,0,5,1.0,0,0,4,0,7,0.0,asocial
01JTS6YPD6RY5G40K4WRD8WMTP,4,1,5,1.0,0,0,1,1,7,0.0,asocial
01JTS6YPD6RY5G40K4WRD8WMTP,4,2,5,1.0,0,0,2,1,7,0.0,asocial
01JTS6YPD6RY5G40K4WRD8WMTP,4,3,5,1.0,0,0,3,1,7,0.0,asocial
01JTS6YPD6RY5G40K4WRD8WMTP,4,4,5,1.0,0,0,0,2,7,0.0,asocial
01JTS6YPD6RY5G40K4WRD8WMTP,4,5,5,1.0,0,0,4,0,7,0.0,asocial
01JTS6YPD6RY5G40K4WRD8WMTP,4,6,5,1.0,0,0,2,1,7,0.0,asocial
01JTS6YPD6RY5G40K4WRD8WMTP,4,7,5,1.0,2,1,2,1,7,0.0,asocial
01JTS6YPD6RY5G40K4WRD8WMTP,4,8,5,1.0,0,0,2,0,7,0.0,asocial
01JTS6YPD6RY5G40K4WRD8WMTP,4,9,5,1.0,0,0,1,0,7,0.0,asocial
01JTS6YPD6RY5G40K4WRD8WMTP,5,0,0,1.0,0,0,9,1,5,1.0,asocial
01JTS6YPD6RY5G40K4WRD8WMTP,5,1,0,1.0,0,0,1,1,5,1.0,asocial
01JTS6YPD6RY5G40K4WRD8WMTP,5,2,0,1.0,0,0,2,1,5,1.0,asocial
01JTS6YPD6RY5G40K4WRD8WMTP,5,3,0,1.0,0,0,3,1,5,1.0,asocial
01JTS6YPD6RY5G40K4WRD8WMTP,5,4,0,1.0,0,0,0,2,5,1.0,asocial
01JTS6YPD6RY5G40K4WRD8WMTP,5,5,0,1.0,1,0,8,0,5,1.0,asocial
01JTS6YPD6RY5G40K4WRD8WMTP,5,6,0,1.0,0,0,2,1,5,1.0,asocial
01JTS6YPD6RY5G40K4WRD8WMTP,5,7,0,1.0,2,1,2,1,5,1.0,asocial
01JTS6YPD6RY5G40K4WRD8WMTP,5,8,0,1.0,0,0,2,0,5,1.0,asocial
01JTS6YPD6RY5G40K4WRD8WMTP,5,9,0,1.0,0,0,1,0,5,1.0,asocial
01JTS6YPD6RY5G40K4WRD8WMTP,6,0,0,1.0,1,0,14,2,0,1.0,asocial
01JTS6YPD6RY5G40K4WRD8WMTP,6,1,0,1.0,0,0,1,1,0,1.0,asocial
01JTS6YPD6RY5G40K4WRD8WMTP,6,2,0,1.0,0,0,2,1,0,1.0,asocial
01JTS6YPD6RY5G40K4WRD8WMTP,6,3,0,1.0,0,0,3,1,0,1.0,asocial
01JTS6YPD6RY5G40K4WRD8WMTP,6,4,0,1.0,0,0,0,2,0,1.0,asocial
01JTS6YPD6RY5G40K4WRD8WMTP,6,5,0,1.0,1,0,11,1,0,1.0,asocial
01JTS6YPD6RY5G40K4WRD8WMTP,6,6,0,1.0,0,0,2,1,0,1.0,asocial
01JTS6YPD6RY5G40K4WRD8WMTP,6,7,0,1.0,2,1,2,1,0,1.0,asocial
01JTS6YPD6RY5G40K4WRD8WMTP,6,8,0,1.0,0,0,2,0,0,1.0,asocial
01JTS6YPD6RY5G40K4WRD8WMTP,6,9,0,1.0,0,0,1,0,0,1.0,asocial
01JTS6YPD6RY5G40K4WRD8WMTP,7,0,0,1.0,2,0,21,4,0,1.0,asocial
01JTS6YPD6RY5G40K4WRD8WMTP,7,1,0,1.0,0,0,2,1,0,1.0,asocial
01JTS6YPD6RY5G40K4WRD8WMTP,7,2,0,1.0,0,0,2,1,0,1.0,asocial
01JTS6YPD6RY5G40K4WRD8WMTP,7,3,0,1.0,0,0,3,1,0,1.0,asocial
01JTS6YPD6RY5G40K4WRD8WMTP,7,4,0,1.0,0,0,0,2,0,1.0,asocial
01JTS6YPD6RY5G40K4WRD8WMTP,7,5,0,1.0,1,0,11,1,0,1.0,asocial
01JTS6YPD6RY5G40K4WRD8WMTP,7,6,0,1.0,0,0,2,1,0,1.0,asocial
01JTS6YPD6RY5G40K4WRD8WMTP,7,7,0,1.0,2,1,2,1,0,1.0,asocial
01JTS6YPD6RY5G40K4WRD8WMTP,7,8,0,1.0,0,0,2,0,0,1.0,asocial
01JTS6YPD6RY5G40K4WRD8WMTP,7,9,0,1.0,0,0,1,0,0,1.0,asocial
01JTS6YPD6RY5G40K4WRD8WMTP,8,0,0,1.0,3,0,26,4,0,1.0,asocial
01JTS6YPD6RY5G40K4WRD8WMTP,8,1,0,1.0,0,0,2,1,0,1.0,asocial
01JTS6YPD6RY5G40K4WRD8WMTP,8,2,0,1.0,0,0,2,1,0,1.0,asocial
01JTS6YPD6RY5G40K4WRD8WMTP,8,3,0,1.0,0,0,3,1,0,1.0,asocial
01JTS6YPD6RY5G40K4WRD8WMTP,8,4,0,1.0,0,0,0,2,0,1.0,asocial
01JTS6YPD6RY5G40K4WRD8WMTP,8,5,0,1.0,1,0,15,2,0,1.0,asocial
01JTS6YPD6RY5G40K4WRD8WMTP,8,6,0,1.0,0,0,2,1,0,1.0,asocial
01JTS6YPD6RY5G40K4WRD8WMTP,8,7,0,1.0,2,1,2,1,0,1.0,asocial
01JTS6YPD6RY5G40K4WRD8WMTP,8,8,0,1.0,0,0,2,0,0,1.0,asocial
01JTS6YPD6RY5G40K4WRD8WMTP,8,9,0,1.0,0,0,1,0,0,1.0,asocial
01JTS6YPD6RY5G40K4WRD8WMTP,9,0,0,1.0,4,0,33,4,0,1.0,asocial
01JTS6YPD6RY5G40K4WRD8WMTP,9,1,0,1.0,0,0,2,1,0,1.0,asocial
01JTS6YPD6RY5G40K4WRD8WMTP,9,2,0,1.0,0,0,2,1,0,1.0,asocial
01JTS6YPD6RY5G40K4WRD8WMTP,9,3,0,1.0,0,0,3,1,0,1.0,asocial
01JTS6YPD6RY5G40K4WRD8WMTP,9,4,0,1.0,0,0,0,2,0,1.0,asocial
01JTS6YPD6RY5G40K4WRD8WMTP,9,5,0,1.0,1,0,18,2,0,1.0,asocial
01JTS6YPD6RY5G40K4WRD8WMTP,9,6,0,1.0,0,0,2,1,0,1.0,asocial
01JTS6YPD6RY5G40K4WRD8WMTP,9,7,0,1.0,2,1,2,1,0,1.0,asocial
01JTS6YPD6RY5G40K4WRD8WMTP,9,8,0,1.0,0,0,2,0,0,1.0,asocial
01JTS6YPD6RY5G40K4WRD8WMTP,9,9,0,1.0,0,0,1,0,0,1.0,asocial
01JTS6YPD6RY5G40K4WRD8WMTP,10,0,0,1.0,5,0,39,6,0,1.0,asocial
01JTS6YPD6RY5G40K4WRD8WMTP,10,1,0,1.0,0,0,2,1,0,1.0,asocial
01JTS6YPD6RY5G40K4WRD8WMTP,10,2,0,1.0,0,0,2,1,0,1.0,asocial
01JTS6YPD6RY5G40K4WRD8WMTP,10,3,0,1.0,0,0,3,1,0,1.0,asocial
01JTS6YPD6RY5G40K4WRD8WMTP,10,4,0,1.0,0,0,0,2,0,1.0,asocial
01JTS6YPD6RY5G40K4WRD8WMTP,10,5,0,1.0,1,0,19,3,0,1.0,asocial
01JTS6YPD6RY5G40K4WRD8WMTP,10,6,0,1.0,0,0,2,1,0,1.0,asocial
01JTS6YPD6RY5G40K4WRD8WMTP,10,7,0,1.0,2,1,2,1,0,1.0,asocial
01JTS6YPD6RY5G40K4WRD8WMTP,10,8,0,1.0,0,0,2,0,0,1.0,asocial
01JTS6YPD6RY5G40K4WRD8WMTP,10,9,0,1.0,0,0,1,0,0,1.0,asocial
01JTS6YPD6RY5G40K4WRD8WMTP,11,0,0,1.0,6,0,44,8,0,1.0,asocial
01JTS6YPD6RY5G40K4WRD8WMTP,11,1,0,1.0,0,0,2,1,0,1.0,asocial
01JTS6YPD6RY5G40K4WRD8WMTP,11,2,0,1.0,0,0,2,1,0,1.0,asocial
01JTS6YPD6RY5G40K4WRD8WMTP,11,3,0,1.0,0,0,3,1,0,1.0,asocial
01JTS6YPD6RY5G40K4WRD8WMTP,11,4,0,1.0,0,0,0,2,0,1.0,asocial
01JTS6YPD6RY5G40K4WRD8WMTP,11,5,0,1.0,1,0,21,4,0,1.0,asocial
01JTS6YPD6RY5G40K4WRD8WMTP,11,6,0,1.0,0,0,2,1,0,1.0,asocial
01JTS6YPD6RY5G40K4WRD8WMTP,11,7,0,1.0,2,1,2,1,0,1.0,asocial
01JTS6YPD6RY5G40K4WRD8WMTP,11,8,0,1.0,0,0,2,0,0,1.0,asocial
01JTS6YPD6RY5G40K4WRD8WMTP,11,9,0,1.0,0,0,1,0,0,1.0,asocial
01JTS6YPD6RY5G40K4WRD8WMTP,12,0,0,1.0,7,0,51,9,0,1.0,asocial
01JTS6YPD6RY5G40K4WRD8WMTP,12,1,0,1.0,0,0,2,1,0,1.0,asocial
01JTS6YPD6RY5G40K4WRD8WMTP,12,2,0,1.0,0,0,2,1,0,1.0,asocial
01JTS6YPD6RY5G40K4WRD8WMTP,12,3,0,1.0,0,0,3,1,0,1.0,asocial
01JTS6YPD6RY5G40K4WRD8WMTP,12,4,0,1.0,0,0,0,2,0,1.0,asocial
01JTS6YPD6RY5G40K4WRD8WMTP,12,5,0,1.0,1,0,23,4,0,1.0,asocial
01JTS6YPD6RY5G40K4WRD8WMTP,12,6,0,1.0,0,0,2,1,0,1.0,asocial
01JTS6YPD6RY5G40K4WRD8WMTP,12,7,0,1.0,2,1,2,1,0,1.0,asocial
01JTS6YPD6RY5G40K4WRD8WMTP,12,8,0,1.0,0,0,2,0,0,1.0,asocial
01JTS6YPD6RY5G40K4WRD8WMTP,12,9,0,1.0,0,0,1,0,0,1.0,asocial
01JTS6YPD6RY5G40K4WRD8WMTP,13,0,0,1.0,8,0,58,10,0,1.0,asocial
01JTS6YPD6RY5G40K4WRD8WMTP,13,1,0,1.0,0,0,2,1,0,1.0,asocial
01JTS6YPD6RY5G40K4WRD8WMTP,13,2,0,1.0,0,0,2,1,0,1.0,asocial
01JTS6YPD6RY5G40K4WRD8WMTP,13,3,0,1.0,0,0,3,1,0,1.0,asocial
01JTS6YPD6RY5G40K4WRD8WMTP,13,4,0,1.0,0,0,0,3,0,1.0,asocial
01JTS6YPD6RY5G40K4WRD8WMTP,13,5,0,1.0,1,0,24,4,0,1.0,asocial
01JTS6YPD6RY5G40K4WRD8WMTP,13,6,0,1.0,0,0,2,1,0,1.0,asocial
01JTS6YPD6RY5G40K4WRD8WMTP,13,7,0,1.0,2,1,2,1,0,1.0,asocial
01JTS6YPD6RY5G40K4WRD8WMTP,13,8,0,1.0,0,0,2,0,0,1.0,asocial
01JTS6YPD6RY5G40K4WRD8WMTP,13,9,0,1.0,0,0,1,0,0,1.0,asocial
01JTS6YPD6RY5G40K4WRD8WMTP,14,0,0,1.0,9,0,65,10,0,1.0,asocial
01JTS6YPD6RY5G40K4WRD8WMTP,14,1,0,1.0,0,0,2,1,0,1.0,asocial
01JTS6YPD6RY5G40K4WRD8WMTP,14,2,0,1.0,0,0,2,1,0,1.0,asocial
01JTS6YPD6RY5G40K4WRD8WMTP,14,3,0,1.0,0,0,3,1,0,1.0,asocial
01JTS6YPD6RY5G40K4WRD8WMTP,14,4,0,1.0,0,0,0,3,0,1.0,asocial
01JTS6YPD6RY5G40K4WRD8WMTP,14,5,0,1.0,1,0,27,4,0,1.0,asocial
01JTS6YPD6RY5G40K4WRD8WMTP,14,6,0,1.0,0,0,2,1,0,1.0,asocial
01JTS6YPD6RY5G40K4WRD8WMTP,14,7,0,1.0,2,1,2,1,0,1.0,asocial
01JTS6YPD6RY5G40K4WRD8WMTP,14,8,0,1.0,0,0,2,0,0,1.0,asocial
01JTS6YPD6RY5G40K4WRD8WMTP,14,9,0,1.0,0,0,1,0,0,1.0,asocial
01JTS6YPD6RY5G40K4WRD8WMTP,15,0,0,1.0,10,0,73,10,0,1.0,asocial
01JTS6YPD6RY5G40K4WRD8WMTP,15,1,0,1.0,0,0,2,1,0,1.0,asocial
01JTS6YPD6RY5G40K4WRD8WMTP,15,2,0,1.0,0,0,2,1,0,1.0,asocial
01JTS6YPD6RY5G40K4WRD8WMTP,15,3,0,1.0,0,0,3,1,0,1.0,asocial
01JTS6YPD6RY5G40K4WRD8WMTP,15,4,0,1.0,0,0,0,3,0,1.0,asocial
01JTS6YPD6RY5G40K4WRD8WMTP,15,5,0,1.0,1,0,29,4,0,1.0,asocial
01JTS6YPD6RY5G40K4WRD8WMTP,15,6,0,1.0,0,0,2,1,0,1.0,asocial
01JTS6YPD6RY5G40K4WRD8WMTP,15,7,0,1.0,2,1,2,1,0,1.0,asocial
01JTS6YPD6RY5G40K4WRD8WMTP,15,8,0,1.0,0,0,2,0,0,1.0,asocial
01JTS6YPD6RY5G40K4WRD8WMTP,15,9,0,1.0,0,0,1,0,0,1.0,asocial
01JTS6YPD6RY5G40K4WRD8WMTP,16,0,0,1.0,11,0,81,10,0,1.0,asocial
01JTS6YPD6RY5G40K4WRD8WMTP,16,1,0,1.0,0,0,2,2,0,1.0,asocial
01JTS6YPD6RY5G40K4WRD8WMTP,16,2,0,1.0,0,0,2,1,0,1.0,asocial
01JTS6YPD6RY5G40K4WRD8WMTP,16,3,0,1.0,0,0,3,1,0,1.0,asocial
01JTS6YPD6RY5G40K4WRD8WMTP,16,4,0,1.0,0,0,0,3,0,1.0,asocial
01JTS6YPD6RY5G40K4WRD8WMTP,16,5,0,1.0,1,0,30,4,0,1.0,asocial
01JTS6YPD6RY5G40K4WRD8WMTP,16,6,0,1.0,0,0,2,1,0,1.0,asocial
01JTS6YPD6RY5G40K4WRD8WMTP,16,7,0,1.0,2,1,2,1,0,1.0,asocial
01JTS6YPD6RY5G40K4WRD8WMTP,16,8,0,1.0,0,0,2,0,0,1.0,asocial
01JTS6YPD6RY5G40K4WRD8WMTP,16,9,0,1.0,0,0,1,0,0,1.0,asocial
01JTS6YPD6RY5G40K4WRD8WMTP,17,0,0,1.0,12,0,89,11,0,1.0,asocial
01JTS6YPD6RY5G40K4WRD8WMTP,17,1,0,1.0,0,0,2,2,0,1.0,asocial
01JTS6YPD6RY5G40K4WRD8WMTP,17,2,0,1.0,0,0,2,1,0,1.0,asocial
01JTS6YPD6RY5G40K4WRD8WMTP,17,3,0,1.0,0,0,3,1,0,1.0,asocial
01JTS6YPD6RY5G40K4WRD8WMTP,17,4,0,1.0,0,0,0,3,0,1.0,asocial
01JTS6YPD6RY5G40K4WRD8WMTP,17,5,0,1.0,1,0,31,4,0,1.0,asocial
01JTS6YPD6RY5G40K4WRD8WMTP,17,6,0,1.0,0,0,2,1,0,1.0,asocial
01JTS6YPD6RY5G40K4WRD8WMTP,17,7,0,1.0,2,1,2,1,0,1.0,asocial
01JTS6YPD6RY5G40K4WRD8WMTP,17,8,0,1.0,0,0,2,0,0,1.0,asocial
01JTS6YPD6RY5G40K4WRD8WMTP,17,9,0,1.0,0,0,1,0,0,1.0,asocial
01JTS6YPD6RY5G40K4WRD8WMTP,18,0,0,1.0,13,0,97,12,0,1.0,asocial
01JTS6YPD6RY5G40K4WRD8WMTP,18,1,0,1.0,0,0,2,2,0,1.0,asocial
01JTS6YPD6RY5G40K4WRD8WMTP,18,2,0,1.0,0,0,2,1,0,1.0,asocial
01JTS6YPD6RY5G40K4WRD8WMTP,18,3,0,1.0,0,0,3,1,0,1.0,asocial
01JTS6YPD6RY5G40K4WRD8WMTP,18,4,0,1.0,0,0,0,3,0,1.0,asocial
01JTS6YPD6RY5G40K4WRD8WMTP,18,5,0,1.0,1,0,32,4,0,1.0,asocial
01JTS6YPD6RY5G40K4WRD8WMTP,18,6,0,1.0,0,0,2,1,0,1.0,asocial
01JTS6YPD6RY5G40K4WRD8WMTP,18,7,0,1.0,2,1,2,1,0,1.0,asocial
01JTS6YPD6RY5G40K4WRD8WMTP,18,8,0,1.0,0,0,2,0,0,1.0,asocial
01JTS6YPD6RY5G40K4WRD8WMTP,18,9,0,1.0,0,0,1,0,0,1.0,asocial
01JTS6YPD6RY5G40K4WRD8WMTP,19,0,0,1.0,14,0,104,13,0,1.0,asocial
01JTS6YPD6RY5G40K4WRD8WMTP,19,1,0,1.0,0,0,2,2,0,1.0,asocial
01JTS6YPD6RY5G40K4WRD8WMTP,19,2,0,1.0,0,0,2,1,0,1.0,asocial
01JTS6YPD6RY5G40K4WRD8WMTP,19,3,0,1.0,0,0,3,1,0,1.0,asocial
01JTS6YPD6RY5G40K4WRD8WMTP,19,4,0,1.0,0,0,0,3,0,1.0,asocial
01JTS6YPD6RY5G40K4WRD8WMTP,19,5,0,1.0,1,0,34,4,0,1.0,asocial
01JTS6YPD6RY5G40K4WRD8WMTP,19,6,0,1.0,0,0,2,1,0,1.0,asocial
01JTS6YPD6RY5G40K4WRD8WMTP,19,7,0,1.0,2,1,2,1,0,1.0,asocial
01JTS6YPD6RY5G40K4WRD8WMTP,19,8,0,1.0,0,0,2,0,0,1.0,asocial
01JTS6YPD6RY5G40K4WRD8WMTP,19,9,0,1.0,0,0,1,0,0,1.0,asocial
01JTS6YPD6RY5G40K4WRD8WMTP,20,0,0,1.0,15,0,111,14,0,1.0,asocial
01JTS6YPD6RY5G40K4WRD8WMTP,20,1,0,1.0,0,0,2,2,0,1.0,asocial
01JTS6YPD6RY5G40K4WRD8WMTP,20,2,0,1.0,0,0,2,1,0,1.0,asocial
01JTS6YPD6RY5G40K4WRD8WMTP,20,3,0,1.0,0,0,3,1,0,1.0,asocial
01JTS6YPD6RY5G40K4WRD8WMTP,20,4,0,1.0,0,0,0,3,0,1.0,asocial
01JTS6YPD6RY5G40K4WRD8WMTP,20,5,0,1.0,1,0,35,5,0,1.0,asocial
01JTS6YPD6RY5G40K4WRD8WMTP,20,6,0,1.0,0,0,2,1,0,1.0,asocial
01JTS6YPD6RY5G40K4WRD8WMTP,20,7,0,1.0,2,1,2,1,0,1.0,asocial
01JTS6YPD6RY5G40K4WRD8WMTP,20,8,0,1.0,0,0,2,0,0,1.0,asocial
01JTS6YPD6RY5G40K4WRD8WMTP,20,9,0,1.0,0,0,1,0,0,1.0,asocial
01JTS6YPD6RY5G40K4WRD8WMTP,21,0,0,1.0,16,0,118,15,0,1.0,asocial
01JTS6YPD6RY5G40K4WRD8WMTP,21,1,0,1.0,0,0,2,2,0,1.0,asocial
01JTS6YPD6RY5G40K4WRD8WMTP,21,2,0,1.0,0,0,2,1,0,1.0,asocial
01JTS6YPD6RY5G40K4WRD8WMTP,21,3,0,1.0,0,0,3,1,0,1.0,asocial
01JTS6YPD6RY5G40K4WRD8WMTP,21,4,0,1.0,0,0,0,3,0,1.0,asocial
01JTS6YPD6RY5G40K4WRD8WMTP,21,5,0,1.0,1,0,36,6,0,1.0,asocial
01JTS6YPD6RY5G40K4WRD8WMTP,21,6,0,1.0,0,0,2,1,0,1.0,asocial
01JTS6YPD6RY5G40K4WRD8WMTP,21,7,0,1.0,2,1,2,1,0,1.0,asocial
01JTS6YPD6RY5G40K4WRD8WMTP,21,8,0,1.0,0,0,2,0,0,1.0,asocial
01JTS6YPD6RY5G40K4WRD8WMTP,21,9,0,1.0,0,0,1,0,0,1.0,asocial
01JTS6YPD6RY5G40K4WRD8WMTP,22,0,0,1.0,17,0,126,15,0,1.0,asocial
01JTS6YPD6RY5G40K4WRD8WMTP,22,1,0,1.0,0,0,2,2,0,1.0,asocial
01JTS6YPD6RY5G40K4WRD8WMTP,22,2,0,1.0,0,0,2,1,0,1.0,asocial
01JTS6YPD6RY5G40K4WRD8WMTP,22,3,0,1.0,0,0,3,1,0,1.0,asocial
01JTS6YPD6RY5G40K4WRD8WMTP,22,4,0,1.0,0,0,0,3,0,1.0,asocial
01JTS6YPD6RY5G40K4WRD8WMTP,22,5,0,1.0,1,0,37,7,0,1.0,asocial
01JTS6YPD6RY5G40K4WRD8WMTP,22,6,0,1.0,0,0,2,1,0,1.0,asocial
01JTS6YPD6RY5G40K4WRD8WMTP,22,7,0,1.0,2,1,2,1,0,1.0,asocial
01JTS6YPD6RY5G40K4WRD8WMTP,22,8,0,1.0,0,0,2,0,0,1.0,asocial
01JTS6YPD6RY5G40K4WRD8WMTP,22,9,0,1.0,0,0,1,0,0,1.0,asocial
01JTS6YPD6RY5G40K4WRD8WMTP,23,0,0,1.0,18,0,135,15,0,1.0,asocial
01JTS6YPD6RY5G40K4WRD8WMTP,23,1,0,1.0,0,0,2,2,0,1.0,asocial
01JTS6YPD6RY5G40K4WRD8WMTP,23,2,0,1.0,0,0,2,1,0,1.0,asocial
01JTS6YPD6RY5G40K4WRD8WMTP,23,3,0,1.0,0,0,3,1,0,1.0,asocial
01JTS6YPD6RY5G40K4WRD8WMTP,23,4,0,1.0,0,0,0,3,0,1.0,asocial
01JTS6YPD6RY5G40K4WRD8WMTP,23,5,0,1.0,1,0,38,7,0,1.0,asocial
01JTS6YPD6RY5G40K4WRD8WMTP,23,6,0,1.0,0,0,2,1,0,1.0,asocial
01JTS6YPD6RY5G40K4WRD8WMTP,23,7,0,1.0,2,1,2,1,0,1.0,asocial
01JTS6YPD6RY5G40K4WRD8WMTP,23,8,0,1.0,0,0,2,0,0,1.0,asocial
01JTS6YPD6RY5G40K4WRD8WMTP,23,9,0,1.0,0,0,1,0,0,1.0,asocial
01JTS6YPD6RY5G40K4WRD8WMTP,24,0,0,1.0,19,0,143,16,0,1.0,asocial
01JTS6YPD6RY5G40K4WRD8WMTP,24,1,0,1.0,0,0,2,2,0,1.0,asocial
01JTS6YPD6RY5G40K4WRD8WMTP,24,2,0,1.0,0,0,2,1,0,1.0,asocial
01JTS6YPD6RY5G40K4WRD8WMTP,24,3,0,1.0,0,0,3,1,0,1.0,asocial
01JTS6YPD6RY5G40K4WRD8WMTP,24,4,0,1.0,0,0,0,3,0,1.0,asocial
01JTS6YPD6RY5G40K4WRD8WMTP,24,5,0,1.0,1,0,39,7,0,1.0,asocial
01JTS6YPD6RY5G40K4WRD8WMTP,24,6,0,1.0,0,0,2,1,0,1.0,asocial
01JTS6YPD6RY5G40K4WRD8WMTP,24,7,0,1.0,2,1,2,1,0,1.0,asocial
01JTS6YPD6RY5G40K4WRD8WMTP,24,8,0,1.0,0,0,2,0,0,1.0,asocial
01JTS6YPD6RY5G40K4WRD8WMTP,24,9,0,1.0,0,0,1,0,0,1.0,asocial
01JTS6YPD6RY5G40K4WRD8WMTP,25,0,0,1.0,20,0,151,17,0,1.0,asocial
01JTS6YPD6RY5G40K4WRD8WMTP,25,1,0,1.0,0,0,2,2,0,1.0,asocial
01JTS6YPD6RY5G40K4WRD8WMTP,25,2,0,1.0,0,0,2,1,0,1.0,asocial
01JTS6YPD6RY5G40K4WRD8WMTP,25,3,0,1.0,0,0,3,1,0,1.0,asocial
01JTS6YPD6RY5G40K4WRD8WMTP,25,4,0,1.0,0,0,0,3,0,1.0,asocial
01JTS6YPD6RY5G40K4WRD8WMTP,25,5,0,1.0,1,0,40,7,0,1.0,asocial
01JTS6YPD6RY5G40K4WRD8WMTP,25,6,0,1.0,0,0,2,1,0,1.0,asocial
01JTS6YPD6RY5G40K4WRD8WMTP,25,7,0,1.0,2,1,2,1,0,1.0,asocial
01JTS6YPD6RY5G40K4WRD8WMTP,25,8,0,1.0,0,0,2,0,0,1.0,asocial
01JTS6YPD6RY5G40K4WRD8WMTP,25,9,0,1.0,0,0,1,0,0,1.0,asocial
01JTS6YPD6RY5G40K4WRD8WMTP,26,0,0,1.0,21,0,160,17,0,1.0,asocial
01JTS6YPD6RY5G40K4WRD8WMTP,26,1,0,1.0,0,0,2,2,0,1.0,asocial
01JTS6YPD6RY5G40K4WRD8WMTP,26,2,0,1.0,0,0,2,1,0,1.0,asocial
01JTS6YPD6RY5G40K4WRD8WMTP,26,3,0,1.0,0,0,3,1,0,1.0,asocial
01JTS6YPD6RY5G40K4WRD8WMTP,26,4,0,1.0,0,0,0,3,0,1.0,asocial
01JTS6YPD6RY5G40K4WRD8WMTP,26,5,0,1.0,1,0,41,7,0,1.0,asocial
01JTS6YPD6RY5G40K4WRD8WMTP,26,6,0,1.0,0,0,2,1,0,1.0,asocial
01JTS6YPD6RY5G40K4WRD8WMTP,26,7,0,1.0,2,1,2,1,0,1.0,asocial
01JTS6YPD6RY5G40K4WRD8WMTP,26,8,0,1.0,0,0,2,0,0,1.0,asocial
01JTS6YPD6RY5G40K4WRD8WMTP,26,9,0,1.0,0,0,1,0,0,1.0,asocial
01JTS6YPD6RY5G40K4WRD8WMTP,27,0,0,1.0,22,0,168,18,0,1.0,asocial
01JTS6YPD6RY5G40K4WRD8WMTP,27,1,0,1.0,0,0,2,2,0,1.0,asocial
01JTS6YPD6RY5G40K4WRD8WMTP,27,2,0,1.0,0,0,2,1,0,1.0,asocial
01JTS6YPD6RY5G40K4WRD8WMTP,27,3,0,1.0,0,0,3,1,0,1.0,asocial
01JTS6YPD6RY5G40K4WRD8WMTP,27,4,0,1.0,0,0,0,3,0,1.0,asocial
01JTS6YPD6RY5G40K4WRD8WMTP,27,5,0,1.0,1,0,41,7,0,1.0,asocial
01JTS6YPD6RY5G40K4WRD8WMTP,27,6,0,1.0,0,0,2,1,0,1.0,asocial
01JTS6YPD6RY5G40K4WRD8WMTP,27,7,0,1.0,2,1,2,1,0,1.0,asocial
01JTS6YPD6RY5G40K4WRD8WMTP,27,8,0,1.0,0,0,3,0,0,1.0,asocial
01JTS6YPD6RY5G40K4WRD8WMTP,27,9,0,1.0,0,0,1,0,0,1.0,asocial
01JTS6YPD6RY5G40K4WRD8WMTP,28,0,0,1.0,23,0,176,19,0,1.0,asocial
01JTS6YPD6RY5G40K4WRD8WMTP,28,1,0,1.0,0,0,2,2,0,1.0,asocial
01JTS6YPD6RY5G40K4WRD8WMTP,28,2,0,1.0,0,0,2,1,0,1.0,asocial
01JTS6YPD6RY5G40K4WRD8WMTP,28,3,0,1.0,0,0,3,1,0,1.0,asocial
01JTS6YPD6RY5G40K4WRD8WMTP,28,4,0,1.0,0,0,0,3,0,1.0,asocial
01JTS6YPD6RY5G40K4WRD8WMTP,28,5,0,1.0,1,0,41,7,0,1.0,asocial
01JTS6YPD6RY5G40K4WRD8WMTP,28,6,0,1.0,0,0,2,1,0,1.0,asocial
01JTS6YPD6RY5G40K4WRD8WMTP,28,7,0,1.0,2,1,2,1,0,1.0,asocial
01JTS6YPD6RY5G40K4WRD8WMTP,28,8,0,1.0,0,0,4,0,0,1.0,asocial
01JTS6YPD6RY5G40K4WRD8WMTP,28,9,0,1.0,0,0,1,0,0,1.0,asocial
01JTS6YPD6RY5G40K4WRD8WMTP,29,0,0,1.0,24,0,184,19,0,1.0,asocial
01JTS6YPD6RY5G40K4WRD8WMTP,29,1,0,1.0,0,0,2,2,0,1.0,asocial
01JTS6YPD6RY5G40K4WRD8WMTP,29,2,0,1.0,0,0,2,1,0,1.0,asocial
01JTS6YPD6RY5G40K4WRD8WMTP,29,3,0,1.0,0,0,3,1,0,1.0,asocial
01JTS6YPD6RY5G40K4WRD8WMTP,29,4,0,1.0,0,0,0,3,0,1.0,asocial
01JTS6YPD6RY5G40K4WRD8WMTP,29,5,0,1.0,1,0,41,7,0,1.0,asocial
01JTS6YPD6RY5G40K4WRD8WMTP,29,6,0,1.0,0,0,2,1,0,1.0,asocial
01JTS6YPD6RY5G40K4WRD8WMTP,29,7,0,1.0,2,1,2,1,0,1.0,asocial
01JTS6YPD6RY5G40K4WRD8WMTP,29,8,0,1.0,0,0,5,0,0,1.0,asocial
01JTS6YPD6RY5G40K4WRD8WMTP,29,9,0,1.0,0,0,1,0,0,1.0,asocial
01JTS6YPD6RY5G40K4WRD8WMTP,30,0,0,1.0,25,0,193,19,0,1.0,asocial
01JTS6YPD6RY5G40K4WRD8WMTP,30,1,0,1.0,0,0,2,2,0,1.0,asocial
01JTS6YPD6RY5G40K4WRD8WMTP,30,2,0,1.0,0,0,2,1,0,1.0,asocial
01JTS6YPD6RY5G40K4WRD8WMTP,30,3,0,1.0,0,0,3,1,0,1.0,asocial
01JTS6YPD6RY5G40K4WRD8WMTP,30,4,0,1.0,0,0,0,3,0,1.0,asocial
01JTS6YPD6RY5G40K4WRD8WMTP,30,5,0,1.0,1,0,41,7,0,1.0,asocial
01JTS6YPD6RY5G40K4WRD8WMTP,30,6,0,1.0,0,0,2,1,0,1.0,asocial
01JTS6YPD6RY5G40K4WRD8WMTP,30,7,0,1.0,2,1,2,1,0,1.0,asocial
01JTS6YPD6RY5G40K4WRD8WMTP,30,8,0,1.0,0,0,6,0,0,1.0,asocial
01JTS6YPD6RY5G40K4WRD8WMTP,30,9,0,1.0,0,0,1,0,0,1.0,asocial
01JTS6YPD6RY5G40K4WRD8WMTP,31,0,0,1.0,26,0,201,20,0,1.0,asocial
01JTS6YPD6RY5G40K4WRD8WMTP,31,1,0,1.0,0,0,2,2,0,1.0,asocial
01JTS6YPD6RY5G40K4WRD8WMTP,31,2,0,1.0,0,0,2,1,0,1.0,asocial
01JTS6YPD6RY5G40K4WRD8WMTP,31,3,0,1.0,0,0,3,1,0,1.0,asocial
01JTS6YPD6RY5G40K4WRD8WMTP,31,4,0,1.0,0,0,0,3,0,1.0,asocial
01JTS6YPD6RY5G40K4WRD8WMTP,31,5,0,1.0,1,0,41,7,0,1.0,asocial
01JTS6YPD6RY5G40K4WRD8WMTP,31,6,0,1.0,0,0,2,1,0,1.0,asocial
01JTS6YPD6RY5G40K4WRD8WMTP,31,7,0,1.0,2,1,2,1,0,1.0,asocial
01JTS6YPD6RY5G40K4WRD8WMTP,31,8,0,1.0,0,0,6,1,0,1.0,asocial
01JTS6YPD6RY5G40K4WRD8WMTP,31,9,0,1.0,0,0,1,0,0,1.0,asocial
01JTS6YPD6RY5G40K4WRD8WMTP,32,0,0,1.0,27,0,209,21,0,1.0,asocial
01JTS6YPD6RY5G40K4WRD8WMTP,32,1,0,1.0,0,0,2,2,0,1.0,asocial
01JTS6YPD6RY5G40K4WRD8WMTP,32,2,0,1.0,0,0,2,1,0,1.0,asocial
01JTS6YPD6RY5G40K4WRD8WMTP,32,3,0,1.0,0,0,3,1,0,1.0,asocial
01JTS6YPD6RY5G40K4WRD8WMTP,32,4,0,1.0,0,0,0,3,0,1.0,asocial
01JTS6YPD6RY5G40K4WRD8WMTP,32,5,0,1.0,1,0,42,7,0,1.0,asocial
01JTS6YPD6RY5G40K4WRD8WMTP,32,6,0,1.0,0,0,2,1,0,1.0,asocial
01JTS6YPD6RY5G40K4WRD8WMTP,32,7,0,1.0,2,1,2,1,0,1.0,asocial
01JTS6YPD6RY5G40K4WRD8WMTP,32,8,0,1.0,0,0,6,1,0,1.0,asocial
01JTS6YPD6RY5G40K4WRD8WMTP,32,9,0,1.0,0,0,1,0,0,1.0,asocial
01JTS6YPD6RY5G40K4WRD8WMTP,33,0,0,1.0,28,0,218,21,0,1.0,asocial
01JTS6YPD6RY5G40K4WRD8WMTP,33,1,0,1.0,0,0,2,2,0,1.0,asocial
01JTS6YPD6RY5G40K4WRD8WMTP,33,2,0,1.0,0,0,2,1,0,1.0,asocial
01JTS6YPD6RY5G40K4WRD8WMTP,33,3,0,1.0,0,0,3,1,0,1.0,asocial
01JTS6YPD6RY5G40K4WRD8WMTP,33,4,0,1.0,0,0,0,3,0,1.0,asocial
01JTS6YPD6RY5G40K4WRD8WMTP,33,5,0,1.0,1,0,43,7,0,1.0,asocial
01JTS6YPD6RY5G40K4WRD8WMTP,33,6,0,1.0,0,0,2,1,0,1.0,asocial
01JTS6YPD6RY5G40K4WRD8WMTP,33,7,0,1.0,2,1,2,1,0,1.0,asocial
01JTS6YPD6RY5G40K4WRD8WMTP,33,8,0,1.0,0,0,6,1,0,1.0,asocial
01JTS6YPD6RY5G40K4WRD8WMTP,33,9,0,1.0,0,0,1,0,0,1.0,asocial
01JTS6YPD6RY5G40K4WRD8WMTP,34,0,0,1.0,29,0,226,21,0,1.0,asocial
01JTS6YPD6RY5G40K4WRD8WMTP,34,1,0,1.0,0,0,2,2,0,1.0,asocial
01JTS6YPD6RY5G40K4WRD8WMTP,34,2,0,1.0,0,0,2,1,0,1.0,asocial
01JTS6YPD6RY5G40K4WRD8WMTP,34,3,0,1.0,0,0,3,1,0,1.0,asocial
01JTS6YPD6RY5G40K4WRD8WMTP,34,4,0,1.0,0,0,0,3,0,1.0,asocial
01JTS6YPD6RY5G40K4WRD8WMTP,34,5,0,1.0,1,0,45,7,0,1.0,asocial
01JTS6YPD6RY5G40K4WRD8WMTP,34,6,0,1.0,0,0,2,1,0,1.0,asocial
01JTS6YPD6RY5G40K4WRD8WMTP,34,7,0,1.0,2,1,2,1,0,1.0,asocial
01JTS6YPD6RY5G40K4WRD8WMTP,34,8,0,1.0,0,0,6,1,0,1.0,asocial
01JTS6YPD6RY5G40K4WRD8WMTP,34,9,0,1.0,0,0,1,0,0,1.0,asocial
01JTS6YPD6RY5G40K4WRD8WMTP,35,0,0,1.0,30,0,236,21,0,1.0,asocial
01JTS6YPD6RY5G40K4WRD8WMTP,35,1,0,1.0,0,0,2,2,0,1.0,asocial
01JTS6YPD6RY5G40K4WRD8WMTP,35,2,0,1.0,0,0,2,1,0,1.0,asocial
01JTS6YPD6RY5G40K4WRD8WMTP,35,3,0,1.0,0,0,3,1,0,1.0,asocial
01JTS6YPD6RY5G40K4WRD8WMTP,35,4,0,1.0,0,0,0,3,0,1.0,asocial
01JTS6YPD6RY5G40K4WRD8WMTP,35,5,0,1.0,1,0,45,7,0,1.0,asocial
01JTS6YPD6RY5G40K4WRD8WMTP,35,6,0,1.0,0,0,2,1,0,1.0,asocial
01JTS6YPD6RY5G40K4WRD8WMTP,35,7,0,1.0,2,1,2,1,0,1.0,asocial
01JTS6YPD6RY5G40K4WRD8WMTP,35,8,0,1.0,0,0,6,1,0,1.0,asocial
01JTS6YPD6RY5G40K4WRD8WMTP,35,9,0,1.0,0,0,1,0,0,1.0,asocial
01JTS6YPD6RY5G40K4WRD8WMTP,36,0,0,1.0,31,0,243,22,0,1.0,asocial
01JTS6YPD6RY5G40K4WRD8WMTP,36,1,0,1.0,0,0,2,2,0,1.0,asocial
01JTS6YPD6RY5G40K4WRD8WMTP,36,2,0,1.0,0,0,2,1,0,1.0,asocial
01JTS6YPD6RY5G40K4WRD8WMTP,36,3,0,1.0,0,0,3,1,0,1.0,asocial
01JTS6YPD6RY5G40K4WRD8WMTP,36,4,0,1.0,0,0,0,3,0,1.0,asocial
01JTS6YPD6RY5G40K4WRD8WMTP,36,5,0,1.0,1,0,46,7,0,1.0,asocial
01JTS6YPD6RY5G40K4WRD8WMTP,36,6,0,1.0,0,0,2,1,0,1.0,asocial
01JTS6YPD6RY5G40K4WRD8WMTP,36,7,0,1.0,2,1,2,1,0,1.0,asocial
01JTS6YPD6RY5G40K4WRD8WMTP,36,8,0,1.0,0,0,6,1,0,1.0,asocial
01JTS6YPD6RY5G40K4WRD8WMTP,36,9,0,1.0,0,0,1,0,0,1.0,asocial
01JTS6YPD6RY5G40K4WRD8WMTP,37,0,0,1.0,32,0,250,23,0,1.0,asocial
01JTS6YPD6RY5G40K4WRD8WMTP,37,1,0,1.0,0,0,2,2,0,1.0,asocial
01JTS6YPD6RY5G40K4WRD8WMTP,37,2,0,1.0,0,0,2,1,0,1.0,asocial
01JTS6YPD6RY5G40K4WRD8WMTP,37,3,0,1.0,0,0,3,1,0,1.0,asocial
01JTS6YPD6RY5G40K4WRD8WMTP,37,4,0,1.0,0,0,0,3,0,1.0,asocial
01JTS6YPD6RY5G40K4WRD8WMTP,37,5,0,1.0,1,0,46,7,0,1.0,asocial
01JTS6YPD6RY5G40K4WRD8WMTP,37,6,0,1.0,0,0,2,1,0,1.0,asocial
01JTS6YPD6RY5G40K4WRD8WMTP,37,7,0,1.0,2,1,2,1,0,1.0,asocial
01JTS6YPD6RY5G40K4WRD8WMTP,37,8,0,1.0,0,0,7,1,0,1.0,asocial
01JTS6YPD6RY5G40K4WRD8WMTP,37,9,0,1.0,0,0,1,0,0,1.0,asocial
01JTS6YPD6RY5G40K4WRD8WMTP,38,0,0,1.0,33,0,257,24,0,1.0,asocial
01JTS6YPD6RY5G40K4WRD8WMTP,38,1,0,1.0,0,0,2,2,0,1.0,asocial
01JTS6YPD6RY5G40K4WRD8WMTP,38,2,0,1.0,0,0,2,1,0,1.0,asocial
01JTS6YPD6RY5G40K4WRD8WMTP,38,3,0,1.0,0,0,3,1,0,1.0,asocial
01JTS6YPD6RY5G40K4WRD8WMTP,38,4,0,1.0,0,0,0,3,0,1.0,asocial
01JTS6YPD6RY5G40K4WRD8WMTP,38,5,0,1.0,1,0,47,7,0,1.0,asocial
01JTS6YPD6RY5G40K4WRD8WMTP,38,6,0,1.0,0,0,2,1,0,1.0,asocial
01JTS6YPD6RY5G40K4WRD8WMTP,38,7,0,1.0,2,1,2,1,0,1.0,asocial
01JTS6YPD6RY5G40K4WRD8WMTP,38,8,0,1.0,0,0,8,1,0,1.0,asocial
01JTS6YPD6RY5G40K4WRD8WMTP,38,9,0,1.0,0,0,1,0,0,1.0,asocial
01JTS6YPD6RY5G40K4WRD8WMTP,39,0,0,1.0,34,0,265,25,0,1.0,asocial
01JTS6YPD6RY5G40K4WRD8WMTP,39,1,0,1.0,0,0,2,2,0,1.0,asocial
01JTS6YPD6RY5G40K4WRD8WMTP,39,2,0,1.0,0,0,2,1,0,1.0,asocial
01JTS6YPD6RY5G40K4WRD8WMTP,39,3,0,1.0,0,0,3,1,0,1.0,asocial
01JTS6YPD6RY5G40K4WRD8WMTP,39,4,0,1.0,0,0,0,3,0,1.0,asocial
01JTS6YPD6RY5G40K4WRD8WMTP,39,5,0,1.0,1,0,47,7,0,1.0,asocial
01JTS6YPD6RY5G40K4WRD8WMTP,39,6,0,1.0,0,0,2,1,0,1.0,asocial
01JTS6YPD6RY5G40K4WRD8WMTP,39,7,0,1.0,2,1,2,1,0,1.0,asocial
01JTS6YPD6RY5G40K4WRD8WMTP,39,8,0,1.0,0,0,9,1,0,1.0,asocial
01JTS6YPD6RY5G40K4WRD8WMTP,39,9,0,1.0,0,0,1,0,0,1.0,asocial
01JTS6YPD6RY5G40K4WRD8WMTP,40,0,0,1.0,35,0,274,25,0,1.0,asocial
01JTS6YPD6RY5G40K4WRD8WMTP,40,1,0,1.0,0,0,2,2,0,1.0,asocial
01JTS6YPD6RY5G40K4WRD8WMTP,40,2,0,1.0,0,0,2,1,0,1.0,asocial
01JTS6YPD6RY5G40K4WRD8WMTP,40,3,0,1.0,0,0,3,1,0,1.0,asocial
01JTS6YPD6RY5G40K4WRD8WMTP,40,4,0,1.0,0,0,0,3,0,1.0,asocial
01JTS6YPD6RY5G40K4WRD8WMTP,40,5,0,1.0,1,0,47,7,0,1.0,asocial
01JTS6YPD6RY5G40K4WRD8WMTP,40,6,0,1.0,0,0,2,1,0,1.0,asocial
01JTS6YPD6RY5G40K4WRD8WMTP,40,7,0,1.0,2,1,2,1,0,1.0,asocial
01JTS6YPD6RY5G40K4WRD8WMTP,40,8,0,1.0,0,0,10,1,0,1.0,asocial
01JTS6YPD6RY5G40K4WRD8WMTP,40,9,0,1.0,0,0,1,0,0,1.0,asocial
01JTS6YPD6RY5G40K4WRD8WMTP,41,0,0,1.0,36,0,282,26,0,1.0,asocial
01JTS6YPD6RY5G40K4WRD8WMTP,41,1,0,1.0,0,0,2,2,0,1.0,asocial
01JTS6YPD6RY5G40K4WRD8WMTP,41,2,0,1.0,0,0,2,1,0,1.0,asocial
01JTS6YPD6RY5G40K4WRD8WMTP,41,3,0,1.0,0,0,3,1,0,1.0,asocial
01JTS6YPD6RY5G40K4WRD8WMTP,41,4,0,1.0,0,0,0,3,0,1.0,asocial
01JTS6YPD6RY5G40K4WRD8WMTP,41,5,0,1.0,1,0,48,7,0,1.0,asocial
01JTS6YPD6RY5G40K4WRD8WMTP,41,6,0,1.0,0,0,2,1,0,1.0,asocial
01JTS6YPD6RY5G40K4WRD8WMTP,41,7,0,1.0,2,1,2,1,0,1.0,asocial
01JTS6YPD6RY5G40K4WRD8WMTP,41,8,0,1.0,0,0,10,1,0,1.0,asocial
01JTS6YPD6RY5G40K4WRD8WMTP,41,9,0,1.0,0,0,1,0,0,1.0,asocial
01JTS6YPD6RY5G40K4WRD8WMTP,42,0,0,1.0,37,0,289,28,0,1.0,asocial
01JTS6YPD6RY5G40K4WRD8WMTP,42,1,0,1.0,0,0,2,2,0,1.0,asocial
01JTS6YPD6RY5G40K4WRD8WMTP,42,2,0,1.0,0,0,2,1,0,1.0,asocial
01JTS6YPD6RY5G40K4WRD8WMTP,42,3,0,1.0,0,0,3,1,0,1.0,asocial
01JTS6YPD6RY5G40K4WRD8WMTP,42,4,0,1.0,0,0,0,3,0,1.0,asocial
01JTS6YPD6RY5G40K4WRD8WMTP,42,5,0,1.0,1,0,48,7,0,1.0,asocial
01JTS6YPD6RY5G40K4WRD8WMTP,42,6,0,1.0,0,0,2,1,0,1.0,asocial
01JTS6YPD6RY5G40K4WRD8WMTP,42,7,0,1.0,2,1,2,1,0,1.0,asocial
01JTS6YPD6RY5G40K4WRD8WMTP,42,8,0,1.0,0,0,10,2,0,1.0,asocial
01JTS6YPD6RY5G40K4WRD8WMTP,42,9,0,1.0,0,0,1,0,0,1.0,asocial
01JTS6YPD6RY5G40K4WRD8WMTP,43,0,0,1.0,38,0,297,28,0,1.0,asocial
01JTS6YPD6RY5G40K4WRD8WMTP,43,1,0,1.0,0,0,2,2,0,1.0,asocial
01JTS6YPD6RY5G40K4WRD8WMTP,43,2,0,1.0,0,0,2,1,0,1.0,asocial
01JTS6YPD6RY5G40K4WRD8WMTP,43,3,0,1.0,0,0,3,1,0,1.0,asocial
01JTS6YPD6RY5G40K4WRD8WMTP,43,4,0,1.0,0,0,0,3,0,1.0,asocial
01JTS6YPD6RY5G40K4WRD8WMTP,43,5,0,1.0,1,0,49,7,0,1.0,asocial
01JTS6YPD6RY5G40K4WRD8WMTP,43,6,0,1.0,0,0,2,1,0,1.0,asocial
01JTS6YPD6RY5G40K4WRD8WMTP,43,7,0,1.0,2,1,2,1,0,1.0,asocial
01JTS6YPD6RY5G40K4WRD8WMTP,43,8,0,1.0,0,0,11,2,0,1.0,asocial
01JTS6YPD6RY5G40K4WRD8WMTP,43,9,0,1.0,0,0,1,0,0,1.0,asocial
01JTS6YPD6RY5G40K4WRD8WMTP,44,0,0,1.0,39,0,305,28,0,1.0,asocial
01JTS6YPD6RY5G40K4WRD8WMTP,44,1,0,1.0,0,0,2,2,0,1.0,asocial
01JTS6YPD6RY5G40K4WRD8WMTP,44,2,0,1.0,0,0,2,1,0,1.0,asocial
01JTS6YPD6RY5G40K4WRD8WMTP,44,3,0,1.0,0,0,3,1,0,1.0,asocial
01JTS6YPD6RY5G40K4WRD8WMTP,44,4,0,1.0,0,0,0,3,0,1.0,asocial
01JTS6YPD6RY5G40K4WRD8WMTP,44,5,0,1.0,1,0,50,7,0,1.0,asocial
01JTS6YPD6RY5G40K4WRD8WMTP,44,6,0,1.0,0,0,2,1,0,1.0,asocial
01JTS6YPD6RY5G40K4WRD8WMTP,44,7,0,1.0,2,1,2,1,0,1.0,asocial
01JTS6YPD6RY5G40K4WRD8WMTP,44,8,0,1.0,0,0,12,2,0,1.0,asocial
01JTS6YPD6RY5G40K4WRD8WMTP,44,9,0,1.0,0,0,1,0,0,1.0,asocial
01JTS6YPD6RY5G40K4WRD8WMTP,45,0,0,1.0,40,0,314,28,0,1.0,asocial
01JTS6YPD6RY5G40K4WRD8WMTP,45,1,0,1.0,0,0,2,2,0,1.0,asocial
01JTS6YPD6RY5G40K4WRD8WMTP,45,2,0,1.0,0,0,2,1,0,1.0,asocial
01JTS6YPD6RY5G40K4WRD8WMTP,45,3,0,1.0,0,0,3,1,0,1.0,asocial
01JTS6YPD6RY5G40K4WRD8WMTP,45,4,0,1.0,0,0,0,3,0,1.0,asocial
01JTS6YPD6RY5G40K4WRD8WMTP,45,5,0,1.0,1,0,50,7,0,1.0,asocial
01JTS6YPD6RY5G40K4WRD8WMTP,45,6,0,1.0,0,0,2,1,0,1.0,asocial
01JTS6YPD6RY5G40K4WRD8WMTP,45,7,0,1.0,2,1,2,1,0,1.0,asocial
01JTS6YPD6RY5G40K4WRD8WMTP,45,8,0,1.0,0,0,13,2,0,1.0,asocial
01JTS6YPD6RY5G40K4WRD8WMTP,45,9,0,1.0,0,0,1,0,0,1.0,asocial
01JTS6YPD6RY5G40K4WRD8WMTP,46,0,0,1.0,41,0,321,30,0,1.0,asocial
01JTS6YPD6RY5G40K4WRD8WMTP,46,1,0,1.0,0,0,2,2,0,1.0,asocial
01JTS6YPD6RY5G40K4WRD8WMTP,46,2,0,1.0,0,0,2,1,0,1.0,asocial
01JTS6YPD6RY5G40K4WRD8WMTP,46,3,0,1.0,0,0,3,1,0,1.0,asocial
01JTS6YPD6RY5G40K4WRD8WMTP,46,4,0,1.0,0,0,0,3,0,1.0,asocial
01JTS6YPD6RY5G40K4WRD8WMTP,46,5,0,1.0,1,0,50,7,0,1.0,asocial
01JTS6YPD6RY5G40K4WRD8WMTP,46,6,0,1.0,0,0,2,1,0,1.0,asocial
01JTS6YPD6RY5G40K4WRD8WMTP,46,7,0,1.0,2,1,2,1,0,1.0,asocial
01JTS6YPD6RY5G40K4WRD8WMTP,46,8,0,1.0,0,0,14,2,0,1.0,asocial
01JTS6YPD6RY5G40K4WRD8WMTP,46,9,0,1.0,0,0,1,0,0,1.0,asocial
01JTS6YPD6RY5G40K4WRD8WMTP,47,0,0,1.0,42,0,329,31,0,1.0,asocial
01JTS6YPD6RY5G40K4WRD8WMTP,47,1,0,1.0,0,0,2,2,0,1.0,asocial
01JTS6YPD6RY5G40K4WRD8WMTP,47,2,0,1.0,0,0,2,1,0,1.0,asocial
01JTS6YPD6RY5G40K4WRD8WMTP,47,3,0,1.0,0,0,3,1,0,1.0,asocial
01JTS6YPD6RY5G40K4WRD8WMTP,47,4,0,1.0,0,0,0,3,0,1.0,asocial
01JTS6YPD6RY5G40K4WRD8WMTP,47,5,0,1.0,1,0,50,7,0,1.0,asocial
01JTS6YPD6RY5G40K4WRD8WMTP,47,6,0,1.0,0,0,2,1,0,1.0,asocial
01JTS6YPD6RY5G40K4WRD8WMTP,47,7,0,1.0,2,1,2,1,0,1.0,asocial
01JTS6YPD6RY5G40K4WRD8WMTP,47,8,0,1.0,0,0,15,2,0,1.0,asocial
01JTS6YPD6RY5G40K4WRD8WMTP,47,9,0,1.0,0,0,1,0,0,1.0,asocial
01JTS6YPD6RY5G40K4WRD8WMTP,48,0,0,1.0,43,0,337,32,0,1.0,asocial
01JTS6YPD6RY5G40K4WRD8WMTP,48,1,0,1.0,0,0,2,2,0,1.0,asocial
01JTS6YPD6RY5G40K4WRD8WMTP,48,2,0,1.0,0,0,2,1,0,1.0,asocial
01JTS6YPD6RY5G40K4WRD8WMTP,48,3,0,1.0,0,0,3,1,0,1.0,asocial
01JTS6YPD6RY5G40K4WRD8WMTP,48,4,0,1.0,0,0,0,3,0,1.0,asocial
01JTS6YPD6RY5G40K4WRD8WMTP,48,5,0,1.0,1,0,50,7,0,1.0,asocial
01JTS6YPD6RY5G40K4WRD8WMTP,48,6,0,1.0,0,0,2,1,0,1.0,asocial
01JTS6YPD6RY5G40K4WRD8WMTP,48,7,0,1.0,2,1,2,1,0,1.0,asocial
01JTS6YPD6RY5G40K4WRD8WMTP,48,8,0,1.0,0,0,16,2,0,1.0,asocial
01JTS6YPD6RY5G40K4WRD8WMTP,48,9,0,1.0,0,0,1,0,0,1.0,asocial
01JTS6YPD6RY5G40K4WRD8WMTP,49,0,0,1.0,44,0,345,33,0,1.0,asocial
01JTS6YPD6RY5G40K4WRD8WMTP,49,1,0,1.0,0,0,2,2,0,1.0,asocial
01JTS6YPD6RY5G40K4WRD8WMTP,49,2,0,1.0,0,0,2,1,0,1.0,asocial
01JTS6YPD6RY5G40K4WRD8WMTP,49,3,0,1.0,0,0,3,1,0,1.0,asocial
01JTS6YPD6RY5G40K4WRD8WMTP,49,4,0,1.0,0,0,0,3,0,1.0,asocial
01JTS6YPD6RY5G40K4WRD8WMTP,49,5,0,1.0,1,0,50,7,0,1.0,asocial
01JTS6YPD6RY5G40K4WRD8WMTP,49,6,0,1.0,0,0,2,1,0,1.0,asocial
01JTS6YPD6RY5G40K4WRD8WMTP,49,7,0,1.0,2,1,2,1,0,1.0,asocial
01JTS6YPD6RY5G40K4WRD8WMTP,49,8,0,1.0,0,0,17,2,0,1.0,asocial
01JTS6YPD6RY5G40K4WRD8WMTP,49,9,0,1.0,0,0,1,0,0,1.0,asocial
01JTS6YPD6RY5G40K4WRD8WMTP,50,0,0,1.0,45,0,353,34,0,1.0,asocial
01JTS6YPD6RY5G40K4WRD8WMTP,50,1,0,1.0,0,0,2,2,0,1.0,asocial
01JTS6YPD6RY5G40K4WRD8WMTP,50,2,0,1.0,0,0,2,1,0,1.0,asocial
01JTS6YPD6RY5G40K4WRD8WMTP,50,3,0,1.0,0,0,3,1,0,1.0,asocial
01JTS6YPD6RY5G40K4WRD8WMTP,50,4,0,1.0,0,0,0,3,0,1.0,asocial
01JTS6YPD6RY5G40K4WRD8WMTP,50,5,0,1.0,1,0,50,7,0,1.0,asocial
01JTS6YPD6RY5G40K4WRD8WMTP,50,6,0,1.0,0,0,2,1,0,1.0,asocial
01JTS6YPD6RY5G40K4WRD8WMTP,50,7,0,1.0,2,1,2,1,0,1.0,asocial
01JTS6YPD6RY5G40K4WRD8WMTP,50,8,0,1.0,0,0,18,2,0,1.0,asocial
01JTS6YPD6RY5G40K4WRD8WMTP,50,9,0,1.0,0,0,1,0,0,1.0,asocial
01JTS6YPD6RY5G40K4WRD8WMTP,51,0,0,1.0,46,0,361,35,0,1.0,asocial
01JTS6YPD6RY5G40K4WRD8WMTP,51,1,0,1.0,0,0,2,2,0,1.0,asocial
01JTS6YPD6RY5G40K4WRD8WMTP,51,2,0,1.0,0,0,2,1,0,1.0,asocial
01JTS6YPD6RY5G40K4WRD8WMTP,51,3,0,1.0,0,0,3,1,0,1.0,asocial
01JTS6YPD6RY5G40K4WRD8WMTP,51,4,0,1.0,0,0,0,3,0,1.0,asocial
01JTS6YPD6RY5G40K4WRD8WMTP,51,5,0,1.0,1,0,50,7,0,1.0,asocial
01JTS6YPD6RY5G40K4WRD8WMTP,51,6,0,1.0,0,0,2,1,0,1.0,asocial
01JTS6YPD6RY5G40K4WRD8WMTP,51,7,0,1.0,2,1,2,1,0,1.0,asocial
01JTS6YPD6RY5G40K4WRD8WMTP,51,8,0,1.0,0,0,19,2,0,1.0,asocial
01JTS6YPD6RY5G40K4WRD8WMTP,51,9,0,1.0,0,0,1,0,0,1.0,asocial
01JTS6YSGKD8E961E8ZKZKJ4BF,1,0,9,1.0,0,0,0,0,-1,,asocial
01JTS6YSGKD8E961E8ZKZKJ4BF,1,1,9,1.0,0,0,0,0,-1,,asocial
01JTS6YSGKD8E961E8ZKZKJ4BF,1,2,9,1.0,0,0,0,0,-1,,asocial
01JTS6YSGKD8E961E8ZKZKJ4BF,1,3,9,1.0,0,0,0,0,-1,,asocial
01JTS6YSGKD8E961E8ZKZKJ4BF,1,4,9,1.0,0,0,0,0,-1,,asocial
01JTS6YSGKD8E961E8ZKZKJ4BF,1,5,9,1.0,0,0,0,0,-1,,asocial
01JTS6YSGKD8E961E8ZKZKJ4BF,1,6,9,1.0,0,0,0,0,-1,,asocial
01JTS6YSGKD8E961E8ZKZKJ4BF,1,7,9,1.0,0,0,0,0,-1,,asocial
01JTS6YSGKD8E961E8ZKZKJ4BF,1,8,9,1.0,0,0,0,0,-1,,asocial
01JTS6YSGKD8E961E8ZKZKJ4BF,1,9,9,1.0,0,0,0,0,-1,,asocial
01JTS6YSGKD8E961E8ZKZKJ4BF,2,0,8,1.0,0,0,1,0,9,1.0,asocial
01JTS6YSGKD8E961E8ZKZKJ4BF,2,1,8,1.0,0,0,1,0,9,1.0,asocial
01JTS6YSGKD8E961E8ZKZKJ4BF,2,2,8,1.0,0,0,1,0,9,1.0,asocial
01JTS6YSGKD8E961E8ZKZKJ4BF,2,3,8,1.0,0,0,1,0,9,1.0,asocial
01JTS6YSGKD8E961E8ZKZKJ4BF,2,4,8,1.0,0,0,0,1,9,1.0,asocial
01JTS6YSGKD8E961E8ZKZKJ4BF,2,5,8,1.0,0,0,1,0,9,1.0,asocial
01JTS6YSGKD8E961E8ZKZKJ4BF,2,6,8,1.0,0,0,1,0,9,1.0,asocial
01JTS6YSGKD8E961E8ZKZKJ4BF,2,7,8,1.0,0,0,1,0,9,1.0,asocial
01JTS6YSGKD8E961E8ZKZKJ4BF,2,8,8,1.0,0,0,1,0,9,1.0,asocial
01JTS6YSGKD8E961E8ZKZKJ4BF,2,9,8,1.0,1,0,1,0,9,1.0,asocial
01JTS6YSGKD8E961E8ZKZKJ4BF,3,0,3,1.0,0,0,2,0,8,1.0,asocial
01JTS6YSGKD8E961E8ZKZKJ4BF,3,1,3,1.0,0,0,1,1,8,1.0,asocial
01JTS6YSGKD8E961E8ZKZKJ4BF,3,2,3,1.0,0,0,1,1,8,1.0,asocial
01JTS6YSGKD8E961E8ZKZKJ4BF,3,3,3,1.0,0,0,1,0,8,1.0,asocial
01JTS6YSGKD8E961E8ZKZKJ4BF,3,4,3,1.0,0,0,0,2,8,1.0,asocial
01JTS6YSGKD8E961E8ZKZKJ4BF,3,5,3,1.0,0,0,2,0,8,1.0,asocial
01JTS6YSGKD8E961E8ZKZKJ4BF,3,6,3,1.0,0,0,2,0,8,1.0,asocial
01JTS6YSGKD8E961E8ZKZKJ4BF,3,7,3,1.0,0,0,2,0,8,1.0,asocial
01JTS6YSGKD8E961E8ZKZKJ4BF,3,8,3,1.0,1,0,2,0,8,1.0,asocial
01JTS6YSGKD8E961E8ZKZKJ4BF,3,9,3,1.0,1,0,1,0,8,1.0,asocial
01JTS6YSGKD8E961E8ZKZKJ4BF,4,0,0,1.0,0,0,4,0,3,1.0,asocial
01JTS6YSGKD8E961E8ZKZKJ4BF,4,1,0,1.0,0,0,1,1,3,1.0,asocial
01JTS6YSGKD8E961E8ZKZKJ4BF,4,2,0,1.0,0,0,2,1,3,1.0,asocial
01JTS6YSGKD8E961E8ZKZKJ4BF,4,3,0,1.0,1,0,3,1,3,1.0,asocial
01JTS6YSGKD8E961E8ZKZKJ4BF,4,4,0,1.0,0,0,0,2,3,1.0,asocial
01JTS6YSGKD8E961E8ZKZKJ4BF,4,5,0,1.0,0,0,4,0,3,1.0,asocial
01JTS6YSGKD8E961E8ZKZKJ4BF,4,6,0,1.0,0,0,2,1,3,1.0,asocial
01JTS6YSGKD8E961E8ZKZKJ4BF,4,7,0,1.0,0,0,2,1,3,1.0,asocial
01JTS6YSGKD8E961E8ZKZKJ4BF,4,8,0,1.0,1,0,2,0,3,1.0,asocial
01JTS6YSGKD8E961E8ZKZKJ4BF,4,9,0,1.0,1,0,1,0,3,1.0,asocial
01JTS6YSGKD8E961E8ZKZKJ4BF,5,0,5,1.0,1,0,9,1,0,1.0,asocial
01JTS6YSGKD8E961E8ZKZKJ4BF,5,1,5,1.0,0,0,1,1,0,1.0,asocial
01JTS6YSGKD8E961E8ZKZKJ4BF,5,2,5,1.0,0,0,2,1,0,1.0,asocial
01JTS6YSGKD8E961E8ZKZKJ4BF,5,3,5,1.0,1,0,3,1,0,1.0,asocial
01JTS6YSGKD8E961E8ZKZKJ4BF,5,4,5,1.0,0,0,0,2,0,1.0,asocial
01JTS6YSGKD8E961E8ZKZKJ4BF,5,5,5,1.0,0,0,8,0,0,1.0,asocial
01JTS6YSGKD8E961E8ZKZKJ4BF,5,6,5,1.0,0,0,2,1,0,1.0,asocial
01JTS6YSGKD8E961E8ZKZKJ4BF,5,7,5,1.0,0,0,2,1,0,1.0,asocial
01JTS6YSGKD8E961E8ZKZKJ4BF,5,8,5,1.0,1,0,2,0,0,1.0,asocial
01JTS6YSGKD8E961E8ZKZKJ4BF,5,9,5,1.0,1,0,1,0,0,1.0,asocial
01JTS6YSGKD8E961E8ZKZKJ4BF,6,0,1,1.0,1,0,14,2,5,1.0,asocial
01JTS6YSGKD8E961E8ZKZKJ4BF,6,1,1,1.0,0,0,1,1,5,1.0,asocial
01JTS6YSGKD8E961E8ZKZKJ4BF,6,2,1,1.0,0,0,2,1,5,1.0,asocial
01JTS6YSGKD8E961E8ZKZKJ4BF,6,3,1,1.0,1,0,3,1,5,1.0,asocial
01JTS6YSGKD8E961E8ZKZKJ4BF,6,4,1,1.0,0,0,0,2,5,1.0,asocial
01JTS6YSGKD8E961E8ZKZKJ4BF,6,5,1,1.0,1,0,11,1,5,1.0,asocial
01JTS6YSGKD8E961E8ZKZKJ4BF,6,6,1,1.0,0,0,2,1,5,1.0,asocial
01JTS6YSGKD8E961E8ZKZKJ4BF,6,7,1,1.0,0,0,2,1,5,1.0,asocial
01JTS6YSGKD8E961E8ZKZKJ4BF,6,8,1,1.0,1,0,2,0,5,1.0,asocial
01JTS6YSGKD8E961E8ZKZKJ4BF,6,9,1,1.0,1,0,1,0,5,1.0,asocial
01JTS6YSGKD8E961E8ZKZKJ4BF,7,0,5,0.0,1,0,21,4,1,1.0,asocial
01JTS6YSGKD8E961E8ZKZKJ4BF,7,1,5,0.0,1,0,2,1,1,1.0,asocial
01JTS6YSGKD8E961E8ZKZKJ4BF,7,2,5,0.0,0,0,2,1,1,1.0,asocial
01JTS6YSGKD8E961E8ZKZKJ4BF,7,3,5,0.0,1,0,3,1,1,1.0,asocial
01JTS6YSGKD8E961E8ZKZKJ4BF,7,4,5,0.0,0,0,0,2,1,1.0,asocial
01JTS6YSGKD8E961E8ZKZKJ4BF,7,5,5,0.0,1,0,11,1,1,1.0,asocial
01JTS6YSGKD8E961E8ZKZKJ4BF,7,6,5,0.0,0,0,2,1,1,1.0,asocial
01JTS6YSGKD8E961E8ZKZKJ4BF,7,7,5,0.0,0,0,2,1,1,1.0,asocial
01JTS6YSGKD8E961E8ZKZKJ4BF,7,8,5,0.0,1,0,2,0,1,1.0,asocial
01JTS6YSGKD8E961E8ZKZKJ4BF,7,9,5,0.0,1,0,1,0,1,1.0,asocial
01JTS6YSGKD8E961E8ZKZKJ4BF,8,0,5,1.0,1,0,26,4,5,0.0,asocial
01JTS6YSGKD8E961E8ZKZKJ4BF,8,1,5,1.0,1,0,2,1,5,0.0,asocial
01JTS6YSGKD8E961E8ZKZKJ4BF,8,2,5,1.0,0,0,2,1,5,0.0,asocial
01JTS6YSGKD8E961E8ZKZKJ4BF,8,3,5,1.0,1,0,3,1,5,0.0,asocial
01JTS6YSGKD8E961E8ZKZKJ4BF,8,4,5,1.0,0,0,0,2,5,0.0,asocial
01JTS6YSGKD8E961E8ZKZKJ4BF,8,5,5,1.0,1,1,15,2,5,0.0,asocial
01JTS6YSGKD8E961E8ZKZKJ4BF,8,6,5,1.0,0,0,2,1,5,0.0,asocial
01JTS6YSGKD8E961E8ZKZKJ4BF,8,7,5,1.0,0,0,2,1,5,0.0,asocial
01JTS6YSGKD8E961E8ZKZKJ4BF,8,8,5,1.0,1,0,2,0,5,0.0,asocial
01JTS6YSGKD8E961E8ZKZKJ4BF,8,9,5,1.0,1,0,1,0,5,0.0,asocial
01JTS6YSGKD8E961E8ZKZKJ4BF,9,0,0,1.0,1,0,33,4,5,1.0,asocial
01JTS6YSGKD8E961E8ZKZKJ4BF,9,1,0,1.0,1,0,2,1,5,1.0,asocial
01JTS6YSGKD8E961E8ZKZKJ4BF,9,2,0,1.0,0,0,2,1,5,1.0,asocial
01JTS6YSGKD8E961E8ZKZKJ4BF,9,3,0,1.0,1,0,3,1,5,1.0,asocial
01JTS6YSGKD8E961E8ZKZKJ4BF,9,4,0,1.0,0,0,0,2,5,1.0,asocial
01JTS6YSGKD8E961E8ZKZKJ4BF,9,5,0,1.0,2,1,18,2,5,1.0,asocial
01JTS6YSGKD8E961E8ZKZKJ4BF,9,6,0,1.0,0,0,2,1,5,1.0,asocial
01JTS6YSGKD8E961E8ZKZKJ4BF,9,7,0,1.0,0,0,2,1,5,1.0,asocial
01JTS6YSGKD8E961E8ZKZKJ4BF,9,8,0,1.0,1,0,2,0,5,1.0,asocial
01JTS6YSGKD8E961E8ZKZKJ4BF,9,9,0,1.0,1,0,1,0,5,1.0,asocial
01JTS6YSGKD8E961E8ZKZKJ4BF,10,0,5,0.0,2,0,39,6,0,1.0,asocial
01JTS6YSGKD8E961E8ZKZKJ4BF,10,1,5,0.0,1,0,2,1,0,1.0,asocial
01JTS6YSGKD8E961E8ZKZKJ4BF,10,2,5,0.0,0,0,2,1,0,1.0,asocial
01JTS6YSGKD8E961E8ZKZKJ4BF,10,3,5,0.0,1,0,3,1,0,1.0,asocial
01JTS6YSGKD8E961E8ZKZKJ4BF,10,4,5,0.0,0,0,0,2,0,1.0,asocial
01JTS6YSGKD8E961E8ZKZKJ4BF,10,5,5,0.0,2,1,19,3,0,1.0,asocial
01JTS6YSGKD8E961E8ZKZKJ4BF,10,6,5,0.0,0,0,2,1,0,1.0,asocial
01JTS6YSGKD8E961E8ZKZKJ4BF,10,7,5,0.0,0,0,2,1,0,1.0,asocial
01JTS6YSGKD8E961E8ZKZKJ4BF,10,8,5,0.0,1,0,2,0,0,1.0,asocial
01JTS6YSGKD8E961E8ZKZKJ4BF,10,9,5,0.0,1,0,1,0,0,1.0,asocial
01JTS6YSGKD8E961E8ZKZKJ4BF,11,0,0,1.0,2,0,44,8,5,0.0,asocial
01JTS6YSGKD8E961E8ZKZKJ4BF,11,1,0,1.0,1,0,2,1,5,0.0,asocial
01JTS6YSGKD8E961E8ZKZKJ4BF,11,2,0,1.0,0,0,2,1,5,0.0,asocial
01JTS6YSGKD8E961E8ZKZKJ4BF,11,3,0,1.0,1,0,3,1,5,0.0,asocial
01JTS6YSGKD8E961E8ZKZKJ4BF,11,4,0,1.0,0,0,0,2,5,0.0,asocial
01JTS6YSGKD8E961E8ZKZKJ4BF,11,5,0,1.0,2,2,21,4,5,0.0,asocial
01JTS6YSGKD8E961E8ZKZKJ4BF,11,6,0,1.0,0,0,2,1,5,0.0,asocial
01JTS6YSGKD8E961E8ZKZKJ4BF,11,7,0,1.0,0,0,2,1,5,0.0,asocial
01JTS6YSGKD8E961E8ZKZKJ4BF,11,8,0,1.0,1,0,2,0,5,0.0,asocial
01JTS6YSGKD8E961E8ZKZKJ4BF,11,9,0,1.0,1,0,1,0,5,0.0,asocial
01JTS6YSGKD8E961E8ZKZKJ4BF,12,0,0,1.0,3,0,51,9,0,1.0,asocial
01JTS6YSGKD8E961E8ZKZKJ4BF,12,1,0,1.0,1,0,2,1,0,1.0,asocial
01JTS6YSGKD8E961E8ZKZKJ4BF,12,2,0,1.0,0,0,2,1,0,1.0,asocial
01JTS6YSGKD8E961E8ZKZKJ4BF,12,3,0,1.0,1,0,3,1,0,1.0,asocial
01JTS6YSGKD8E961E8ZKZKJ4BF,12,4,0,1.0,0,0,0,2,0,1.0,asocial
01JTS6YSGKD8E961E8ZKZKJ4BF,12,5,0,1.0,2,2,23,4,0,1.0,asocial
01JTS6YSGKD8E961E8ZKZKJ4BF,12,6,0,1.0,0,0,2,1,0,1.0,asocial
01JTS6YSGKD8E961E8ZKZKJ4BF,12,7,0,1.0,0,0,2,1,0,1.0,asocial
01JTS6YSGKD8E961E8ZKZKJ4BF,12,8,0,1.0,1,0,2,0,0,1.0,asocial
01JTS6YSGKD8E961E8ZKZKJ4BF,12,9,0,1.0,1,0,1,0,0,1.0,asocial
01JTS6YSGKD8E961E8ZKZKJ4BF,13,0,5,1.0,4,0,58,10,0,1.0,asocial
01JTS6YSGKD8E961E8ZKZKJ4BF,13,1,5,1.0,1,0,2,1,0,1.0,asocial
01JTS6YSGKD8E961E8ZKZKJ4BF,13,2,5,1.0,0,0,2,1,0,1.0,asocial
01JTS6YSGKD8E961E8ZKZKJ4BF,13,3,5,1.0,1,0,3,1,0,1.0,asocial
01JTS6YSGKD8E961E8ZKZKJ4BF,13,4,5,1.0,0,0,0,3,0,1.0,asocial
01JTS6YSGKD8E961E8ZKZKJ4BF,13,5,5,1.0,2,2,24,4,0,1.0,asocial
01JTS6YSGKD8E961E8ZKZKJ4BF,13,6,5,1.0,0,0,2,1,0,1.0,asocial
01JTS6YSGKD8E961E8ZKZKJ4BF,13,7,5,1.0,0,0,2,1,0,1.0,asocial
01JTS6YSGKD8E961E8ZKZKJ4BF,13,8,5,1.0,1,0,2,0,0,1.0,asocial
01JTS6YSGKD8E961E8ZKZKJ4BF,13,9,5,1.0,1,0,1,0,0,1.0,asocial
01JTS6YSGKD8E961E8ZKZKJ4BF,14,0,0,1.0,4,0,65,10,5,1.0,asocial
01JTS6YSGKD8E961E8ZKZKJ4BF,14,1,0,1.0,1,0,2,1,5,1.0,asocial
01JTS6YSGKD8E961E8ZKZKJ4BF,14,2,0,1.0,0,0,2,1,5,1.0,asocial
01JTS6YSGKD8E961E8ZKZKJ4BF,14,3,0,1.0,1,0,3,1,5,1.0,asocial
01JTS6YSGKD8E961E8ZKZKJ4BF,14,4,0,1.0,0,0,0,3,5,1.0,asocial
01JTS6YSGKD8E961E8ZKZKJ4BF,14,5,0,1.0,3,2,27,4,5,1.0,asocial
01JTS6YSGKD8E961E8ZKZKJ4BF,14,6,0,1.0,0,0,2,1,5,1.0,asocial
01JTS6YSGKD8E961E8ZKZKJ4BF,14,7,0,1.0,0,0,2,1,5,1.0,asocial
01JTS6YSGKD8E961E8ZKZKJ4BF,14,8,0,1.0,1,0,2,0,5,1.0,asocial
01JTS6YSGKD8E961E8ZKZKJ4BF,14,9,0,1.0,1,0,1,0,5,1.0,asocial
01JTS6YSGKD8E961E8ZKZKJ4BF,15,0,1,0.0,5,0,73,10,0,1.0,asocial
01JTS6YSGKD8E961E8ZKZKJ4BF,15,1,1,0.0,1,0,2,1,0,1.0,asocial
01JTS6YSGKD8E961E8ZKZKJ4BF,15,2,1,0.0,0,0,2,1,0,1.0,asocial
01JTS6YSGKD8E961E8ZKZKJ4BF,15,3,1,0.0,1,0,3,1,0,1.0,asocial
01JTS6YSGKD8E961E8ZKZKJ4BF,15,4,1,0.0,0,0,0,3,0,1.0,asocial
01JTS6YSGKD8E961E8ZKZKJ4BF,15,5,1,0.0,3,2,29,4,0,1.0,asocial
01JTS6YSGKD8E961E8ZKZKJ4BF,15,6,1,0.0,0,0,2,1,0,1.0,asocial
01JTS6YSGKD8E961E8ZKZKJ4BF,15,7,1,0.0,0,0,2,1,0,1.0,asocial
01JTS6YSGKD8E961E8ZKZKJ4BF,15,8,1,0.0,1,0,2,0,0,1.0,asocial
01JTS6YSGKD8E961E8ZKZKJ4BF,15,9,1,0.0,1,0,1,0,0,1.0,asocial
01JTS6YSGKD8E961E8ZKZKJ4BF,16,0,0,0.0,5,0,81,10,1,0.0,asocial
01JTS6YSGKD8E961E8ZKZKJ4BF,16,1,0,0.0,1,1,2,2,1,0.0,asocial
01JTS6YSGKD8E961E8ZKZKJ4BF,16,2,0,0.0,0,0,2,1,1,0.0,asocial
01JTS6YSGKD8E961E8ZKZKJ4BF,16,3,0,0.0,1,0,3,1,1,0.0,asocial
01JTS6YSGKD8E961E8ZKZKJ4BF,16,4,0,0.0,0,0,0,3,1,0.0,asocial
01JTS6YSGKD8E961E8ZKZKJ4BF,16,5,0,0.0,3,2,30,4,1,0.0,asocial
01JTS6YSGKD8E961E8ZKZKJ4BF,16,6,0,0.0,0,0,2,1,1,0.0,asocial
01JTS6YSGKD8E961E8ZKZKJ4BF,16,7,0,0.0,0,0,2,1,1,0.0,asocial
01JTS6YSGKD8E961E8ZKZKJ4BF,16,8,0,0.0,1,0,2,0,1,0.0,asocial
01JTS6YSGKD8E961E8ZKZKJ4BF,16,9,0,0.0,1,0,1,0,1,0.0,asocial
01JTS6YSGKD8E961E8ZKZKJ4BF,17,0,0,1.0,5,1,89,11,0,0.0,asocial
01JTS6YSGKD8E961E8ZKZKJ4BF,17,1,0,1.0,1,1,2,2,0,0.0,asocial
01JTS6YSGKD8E961E8ZKZKJ4BF,17,2,0,1.0,0,0,2,1,0,0.0,asocial
01JTS6YSGKD8E961E8ZKZKJ4BF,17,3,0,1.0,1,0,3,1,0,0.0,asocial
01JTS6YSGKD8E961E8ZKZKJ4BF,17,4,0,1.0,0,0,0,3,0,0.0,asocial
01JTS6YSGKD8E961E8ZKZKJ4BF,17,5,0,1.0,3,2,31,4,0,0.0,asocial
01JTS6YSGKD8E961E8ZKZKJ4BF,17,6,0,1.0,0,0,2,1,0,0.0,asocial
01JTS6YSGKD8E961E8ZKZKJ4BF,17,7,0,1.0,0,0,2,1,0,0.0,asocial
01JTS6YSGKD8E961E8ZKZKJ4BF,17,8,0,1.0,1,0,2,0,0,0.0,asocial
01JTS6YSGKD8E961E8ZKZKJ4BF,17,9,0,1.0,1,0,1,0,0,0.0,asocial
01JTS6YSGKD8E961E8ZKZKJ4BF,18,0,0,1.0,6,1,97,12,0,1.0,asocial
01JTS6YSGKD8E961E8ZKZKJ4BF,18,1,0,1.0,1,1,2,2,0,1.0,asocial
01JTS6YSGKD8E961E8ZKZKJ4BF,18,2,0,1.0,0,0,2,1,0,1.0,asocial
01JTS6YSGKD8E961E8ZKZKJ4BF,18,3,0,1.0,1,0,3,1,0,1.0,asocial
01JTS6YSGKD8E961E8ZKZKJ4BF,18,4,0,1.0,0,0,0,3,0,1.0,asocial
01JTS6YSGKD8E961E8ZKZKJ4BF,18,5,0,1.0,3,2,32,4,0,1.0,asocial
01JTS6YSGKD8E961E8ZKZKJ4BF,18,6,0,1.0,0,0,2,1,0,1.0,asocial
01JTS6YSGKD8E961E8ZKZKJ4BF,18,7,0,1.0,0,0,2,1,0,1.0,asocial
01JTS6YSGKD8E961E8ZKZKJ4BF,18,8,0,1.0,1,0,2,0,0,1.0,asocial
01JTS6YSGKD8E961E8ZKZKJ4BF,18,9,0,1.0,1,0,1,0,0,1.0,asocial
01JTS6YSGKD8E961E8ZKZKJ4BF,19,0,0,1.0,7,1,104,13,0,1.0,asocial
01JTS6YSGKD8E961E8ZKZKJ4BF,19,1,0,1.0,1,1,2,2,0,1.0,asocial
01JTS6YSGKD8E961E8ZKZKJ4BF,19,2,0,1.0,0,0,2,1,0,1.0,asocial
01JTS6YSGKD8E961E8ZKZKJ4BF,19,3,0,1.0,1,0,3,1,0,1.0,asocial
01JTS6YSGKD8E961E8ZKZKJ4BF,19,4,0,1.0,0,0,0,3,0,1.0,asocial
01JTS6YSGKD8E961E8ZKZKJ4BF,19,5,0,1.0,3,2,34,4,0,1.0,asocial
01JTS6YSGKD8E961E8ZKZKJ4BF,19,6,0,1.0,0,0,2,1,0,1.0,asocial
01JTS6YSGKD8E961E8ZKZKJ4BF,19,7,0,1.0,0,0,2,1,0,1.0,asocial
01JTS6YSGKD8E961E8ZKZKJ4BF,19,8,0,1.0,1,0,2,0,0,1.0,asocial
01JTS6YSGKD8E961E8ZKZKJ4BF,19,9,0,1.0,1,0,1,0,0,1.0,asocial
01JTS6YSGKD8E961E8ZKZKJ4BF,20,0,0,1.0,8,1,111,14,0,1.0,asocial
01JTS6YSGKD8E961E8ZKZKJ4BF,20,1,0,1.0,1,1,2,2,0,1.0,asocial
01JTS6YSGKD8E961E8ZKZKJ4BF,20,2,0,1.0,0,0,2,1,0,1.0,asocial
01JTS6YSGKD8E961E8ZKZKJ4BF,20,3,0,1.0,1,0,3,1,0,1.0,asocial
01JTS6YSGKD8E961E8ZKZKJ4BF,20,4,0,1.0,0,0,0,3,0,1.0,asocial
01JTS6YSGKD8E961E8ZKZKJ4BF,20,5,0,1.0,3,2,35,5,0,1.0,asocial
01JTS6YSGKD8E961E8ZKZKJ4BF,20,6,0,1.0,0,0,2,1,0,1.0,asocial
01JTS6YSGKD8E961E8ZKZKJ4BF,20,7,0,1.0,0,0,2,1,0,1.0,asocial
01JTS6YSGKD8E961E8ZKZKJ4BF,20,8,0,1.0,1,0,2,0,0,1.0,asocial
01JTS6YSGKD8E961E8ZKZKJ4BF,20,9,0,1.0,1,0,1,0,0,1.0,asocial
01JTS6YSGKD8E961E8ZKZKJ4BF,21,0,5,0.0,9,1,118,15,0,1.0,asocial
01JTS6YSGKD8E961E8ZKZKJ4BF,21,1,5,0.0,1,1,2,2,0,1.0,asocial
01JTS6YSGKD8E961E8ZKZKJ4BF,21,2,5,0.0,0,0,2,1,0,1.0,asocial
01JTS6YSGKD8E961E8ZKZKJ4BF,21,3,5,0.0,1,0,3,1,0,1.0,asocial
01JTS6YSGKD8E961E8ZKZKJ4BF,21,4,5,0.0,0,0,0,3,0,1.0,asocial
01JTS6YSGKD8E961E8ZKZKJ4BF,21,5,5,0.0,3,2,36,6,0,1.0,asocial
01JTS6YSGKD8E961E8ZKZKJ4BF,21,6,5,0.0,0,0,2,1,0,1.0,asocial
01JTS6YSGKD8E961E8ZKZKJ4BF,21,7,5,0.0,0,0,2,1,0,1.0,asocial
01JTS6YSGKD8E961E8ZKZKJ4BF,21,8,5,0.0,1,0,2,0,0,1.0,asocial
01JTS6YSGKD8E961E8ZKZKJ4BF,21,9,5,0.0,1,0,1,0,0,1.0,asocial
01JTS6YSGKD8E961E8ZKZKJ4BF,22,0,0,1.0,9,1,126,15,5,0.0,asocial
01JTS6YSGKD8E961E8ZKZKJ4BF,22,1,0,1.0,1,1,2,2,5,0.0,asocial
01JTS6YSGKD8E961E8ZKZKJ4BF,22,2,0,1.0,0,0,2,1,5,0.0,asocial
01JTS6YSGKD8E961E8ZKZKJ4BF,22,3,0,1.0,1,0,3,1,5,0.0,asocial
01JTS6YSGKD8E961E8ZKZKJ4BF,22,4,0,1.0,0,0,0,3,5,0.0,asocial
01JTS6YSGKD8E961E8ZKZKJ4BF,22,5,0,1.0,3,3,37,7,5,0.0,asocial
01JTS6YSGKD8E961E8ZKZKJ4BF,22,6,0,1.0,0,0,2,1,5,0.0,asocial
01JTS6YSGKD8E961E8ZKZKJ4BF,22,7,0,1.0,0,0,2,1,5,0.0,asocial
01JTS6YSGKD8E961E8ZKZKJ4BF,22,8,0,1.0,1,0,2,0,5,0.0,asocial
01JTS6YSGKD8E961E8ZKZKJ4BF,22,9,0,1.0,1,0,1,0,5,0.0,asocial
01JTS6YSGKD8E961E8ZKZKJ4BF,23,0,0,1.0,10,1,135,15,0,1.0,asocial
01JTS6YSGKD8E961E8ZKZKJ4BF,23,1,0,1.0,1,1,2,2,0,1.0,asocial
01JTS6YSGKD8E961E8ZKZKJ4BF,23,2,0,1.0,0,0,2,1,0,1.0,asocial
01JTS6YSGKD8E961E8ZKZKJ4BF,23,3,0,1.0,1,0,3,1,0,1.0,asocial
01JTS6YSGKD8E961E8ZKZKJ4BF,23,4,0,1.0,0,0,0,3,0,1.0,asocial
01JTS6YSGKD8E961E8ZKZKJ4BF,23,5,0,1.0,3,3,38,7,0,1.0,asocial
01JTS6YSGKD8E961E8ZKZKJ4BF,23,6,0,1.0,0,0,2,1,0,1.0,asocial
01JTS6YSGKD8E961E8ZKZKJ4BF,23,7,0,1.0,0,0,2,1,0,1.0,asocial
01JTS6YSGKD8E961E8ZKZKJ4BF,23,8,0,1.0,1,0,2,0,0,1.0,asocial
01JTS6YSGKD8E961E8ZKZKJ4BF,23,9,0,1.0,1,0,1,0,0,1.0,asocial
01JTS6YSGKD8E961E8ZKZKJ4BF,24,0,0,1.0,11,1,143,16,0,1.0,asocial
01JTS6YSGKD8E961E8ZKZKJ4BF,24,1,0,1.0,1,1,2,2,0,1.0,asocial
01JTS6YSGKD8E961E8ZKZKJ4BF,24,2,0,1.0,0,0,2,1,0,1.0,asocial
01JTS6YSGKD8E961E8ZKZKJ4BF,24,3,0,1.0,1,0,3,1,0,1.0,asocial
01JTS6YSGKD8E961E8ZKZKJ4BF,24,4,0,1.0,0,0,0,3,0,1.0,asocial
01JTS6YSGKD8E961E8ZKZKJ4BF,24,5,0,1.0,3,3,39,7,0,1.0,asocial
01JTS6YSGKD8E961E8ZKZKJ4BF,24,6,0,1.0,0,0,2,1,0,1.0,asocial
01JTS6YSGKD8E961E8ZKZKJ4BF,24,7,0,1.0,0,0,2,1,0,1.0,asocial
01JTS6YSGKD8E961E8ZKZKJ4BF,24,8,0,1.0,1,0,2,0,0,1.0,asocial
01JTS6YSGKD8E961E8ZKZKJ4BF,24,9,0,1.0,1,0,1,0,0,1.0,asocial
01JTS6YSGKD8E961E8ZKZKJ4BF,25,0,0,1.0,12,1,151,17,0,1.0,asocial
01JTS6YSGKD8E961E8ZKZKJ4BF,25,1,0,1.0,1,1,2,2,0,1.0,asocial
01JTS6YSGKD8E961E8ZKZKJ4BF,25,2,0,1.0,0,0,2,1,0,1.0,asocial
01JTS6YSGKD8E961E8ZKZKJ4BF,25,3,0,1.0,1,0,3,1,0,1.0,asocial
01JTS6YSGKD8E961E8ZKZKJ4BF,25,4,0,1.0,0,0,0,3,0,1.0,asocial
01JTS6YSGKD8E961E8ZKZKJ4BF,25,5,0,1.0,3,3,40,7,0,1.0,asocial
01JTS6YSGKD8E961E8ZKZKJ4BF,25,6,0,1.0,0,0,2,1,0,1.0,asocial
01JTS6YSGKD8E961E8ZKZKJ4BF,25,7,0,1.0,0,0,2,1,0,1.0,asocial
01JTS6YSGKD8E961E8ZKZKJ4BF,25,8,0,1.0,1,0,2,0,0,1.0,asocial
01JTS6YSGKD8E961E8ZKZKJ4BF,25,9,0,1.0,1,0,1,0,0,1.0,asocial
01JTS6YSGKD8E961E8ZKZKJ4BF,26,0,0,1.0,13,1,160,17,0,1.0,asocial
01JTS6YSGKD8E961E8ZKZKJ4BF,26,1,0,1.0,1,1,2,2,0,1.0,asocial
01JTS6YSGKD8E961E8ZKZKJ4BF,26,2,0,1.0,0,0,2,1,0,1.0,asocial
01JTS6YSGKD8E961E8ZKZKJ4BF,26,3,0,1.0,1,0,3,1,0,1.0,asocial
01JTS6YSGKD8E961E8ZKZKJ4BF,26,4,0,1.0,0,0,0,3,0,1.0,asocial
01JTS6YSGKD8E961E8ZKZKJ4BF,26,5,0,1.0,3,3,41,7,0,1.0,asocial
01JTS6YSGKD8E961E8ZKZKJ4BF,26,6,0,1.0,0,0,2,1,0,1.0,asocial
01JTS6YSGKD8E961E8ZKZKJ4BF,26,7,0,1.0,0,0,2,1,0,1.0,asocial
01JTS6YSGKD8E961E8ZKZKJ4BF,26,8,0,1.0,1,0,2,0,0,1.0,asocial
01JTS6YSGKD8E961E8ZKZKJ4BF,26,9,0,1.0,1,0,1,0,0,1.0,asocial
01JTS6YSGKD8E961E8ZKZKJ4BF,27,0,0,1.0,14,1,168,18,0,1.0,asocial
01JTS6YSGKD8E961E8ZKZKJ4BF,27,1,0,1.0,1,1,2,2,0,1.0,asocial
01JTS6YSGKD8E961E8ZKZKJ4BF,27,2,0,1.0,0,0,2,1,0,1.0,asocial
01JTS6YSGKD8E961E8ZKZKJ4BF,27,3,0,1.0,1,0,3,1,0,1.0,asocial
01JTS6YSGKD8E961E8ZKZKJ4BF,27,4,0,1.0,0,0,0,3,0,1.0,asocial
01JTS6YSGKD8E961E8ZKZKJ4BF,27,5,0,1.0,3,3,41,7,0,1.0,asocial
01JTS6YSGKD8E961E8ZKZKJ4BF,27,6,0,1.0,0,0,2,1,0,1.0,asocial
01JTS6YSGKD8E961E8ZKZKJ4BF,27,7,0,1.0,0,0,2,1,0,1.0,asocial
01JTS6YSGKD8E961E8ZKZKJ4BF,27,8,0,1.0,1,0,3,0,0,1.0,asocial
01JTS6YSGKD8E961E8ZKZKJ4BF,27,9,0,1.0,1,0,1,0,0,1.0,asocial
01JTS6YSGKD8E961E8ZKZKJ4BF,28,0,0,1.0,15,1,176,19,0,1.0,asocial
01JTS6YSGKD8E961E8ZKZKJ4BF,28,1,0,1.0,1,1,2,2,0,1.0,asocial
01JTS6YSGKD8E961E8ZKZKJ4BF,28,2,0,1.0,0,0,2,1,0,1.0,asocial
01JTS6YSGKD8E961E8ZKZKJ4BF,28,3,0,1.0,1,0,3,1,0,1.0,asocial
01JTS6YSGKD8E961E8ZKZKJ4BF,28,4,0,1.0,0,0,0,3,0,1.0,asocial
01JTS6YSGKD8E961E8ZKZKJ4BF,28,5,0,1.0,3,3,41,7,0,1.0,asocial
01JTS6YSGKD8E961E8ZKZKJ4BF,28,6,0,1.0,0,0,2,1,0,1.0,asocial
01JTS6YSGKD8E961E8ZKZKJ4BF,28,7,0,1.0,0,0,2,1,0,1.0,asocial
01JTS6YSGKD8E961E8ZKZKJ4BF,28,8,0,1.0,1,0,4,0,0,1.0,asocial
01JTS6YSGKD8E961E8ZKZKJ4BF,28,9,0,1.0,1,0,1,0,0,1.0,asocial
01JTS6YSGKD8E961E8ZKZKJ4BF,29,0,0,1.0,16,1,184,19,0,1.0,asocial
01JTS6YSGKD8E961E8ZKZKJ4BF,29,1,0,1.0,1,1,2,2,0,1.0,asocial
01JTS6YSGKD8E961E8ZKZKJ4BF,29,2,0,1.0,0,0,2,1,0,1.0,asocial
01JTS6YSGKD8E961E8ZKZKJ4BF,29,3,0,1.0,1,0,3,1,0,1.0,asocial
01JTS6YSGKD8E961E8ZKZKJ4BF,29,4,0,1.0,0,0,0,3,0,1.0,asocial
01JTS6YSGKD8E961E8ZKZKJ4BF,29,5,0,1.0,3,3,41,7,0,1.0,asocial
01JTS6YSGKD8E961E8ZKZKJ4BF,29,6,0,1.0,0,0,2,1,0,1.0,asocial
01JTS6YSGKD8E961E8ZKZKJ4BF,29,7,0,1.0,0,0,2,1,0,1.0,asocial
01JTS6YSGKD8E961E8ZKZKJ4BF,29,8,0,1.0,1,0,5,0,0,1.0,asocial
01JTS6YSGKD8E961E8ZKZKJ4BF,29,9,0,1.0,1,0,1,0,0,1.0,asocial
01JTS6YSGKD8E961E8ZKZKJ4BF,30,0,0,1.0,17,1,193,19,0,1.0,asocial
01JTS6YSGKD8E961E8ZKZKJ4BF,30,1,0,1.0,1,1,2,2,0,1.0,asocial
01JTS6YSGKD8E961E8ZKZKJ4BF,30,2,0,1.0,0,0,2,1,0,1.0,asocial
01JTS6YSGKD8E961E8ZKZKJ4BF,30,3,0,1.0,1,0,3,1,0,1.0,asocial
01JTS6YSGKD8E961E8ZKZKJ4BF,30,4,0,1.0,0,0,0,3,0,1.0,asocial
01JTS6YSGKD8E961E8ZKZKJ4BF,30,5,0,1.0,3,3,41,7,0,1.0,asocial
01JTS6YSGKD8E961E8ZKZKJ4BF,30,6,0,1.0,0,0,2,1,0,1.0,asocial
01JTS6YSGKD8E961E8ZKZKJ4BF,30,7,0,1.0,0,0,2,1,0,1.0,asocial
01JTS6YSGKD8E961E8ZKZKJ4BF,30,8,0,1.0,1,0,6,0,0,1.0,asocial
01JTS6YSGKD8E961E8ZKZKJ4BF,30,9,0,1.0,1,0,1,0,0,1.0,asocial
01JTS6YSGKD8E961E8ZKZKJ4BF,31,0,0,1.0,18,1,201,20,0,1.0,asocial
01JTS6YSGKD8E961E8ZKZKJ4BF,31,1,0,1.0,1,1,2,2,0,1.0,asocial
01JTS6YSGKD8E961E8ZKZKJ4BF,31,2,0,1.0,0,0,2,1,0,1.0,asocial
01JTS6YSGKD8E961E8ZKZKJ4BF,31,3,0,1.0,1,0,3,1,0,1.0,asocial
01JTS6YSGKD8E961E8ZKZKJ4BF,31,4,0,1.0,0,0,0,3,0,1.0,asocial
01JTS6YSGKD8E961E8ZKZKJ4BF,31,5,0,1.0,3,3,41,7,0,1.0,asocial
01JTS6YSGKD8E961E8ZKZKJ4BF,31,6,0,1.0,0,0,2,1,0,1.0,asocial
01JTS6YSGKD8E961E8ZKZKJ4BF,31,7,0,1.0,0,0,2,1,0,1.0,asocial
01JTS6YSGKD8E961E8ZKZKJ4BF,31,8,0,1.0,1,0,6,1,0,1.0,asocial
01JTS6YSGKD8E961E8ZKZKJ4BF,31,9,0,1.0,1,0,1,0,0,1.0,asocial
01JTS6YSGKD8E961E8ZKZKJ4BF,32,0,0,1.0,19,1,209,21,0,1.0,asocial
01JTS6YSGKD8E961E8ZKZKJ4BF,32,1,0,1.0,1,1,2,2,0,1.0,asocial
01JTS6YSGKD8E961E8ZKZKJ4BF,32,2,0,1.0,0,0,2,1,0,1.0,asocial
01JTS6YSGKD8E961E8ZKZKJ4BF,32,3,0,1.0,1,0,3,1,0,1.0,asocial
01JTS6YSGKD8E961E8ZKZKJ4BF,32,4,0,1.0,0,0,0,3,0,1.0,asocial
01JTS6YSGKD8E961E8ZKZKJ4BF,32,5,0,1.0,3,3,42,7,0,1.0,asocial
01JTS6YSGKD8E961E8ZKZKJ4BF,32,6,0,1.0,0,0,2,1,0,1.0,asocial
01JTS6YSGKD8E961E8ZKZKJ4BF,32,7,0,1.0,0,0,2,1,0,1.0,asocial
01JTS6YSGKD8E961E8ZKZKJ4BF,32,8,0,1.0,1,0,6,1,0,1.0,asocial
01JTS6YSGKD8E961E8ZKZKJ4BF,32,9,0,1.0,1,0,1,0,0,1.0,asocial
01JTS6YSGKD8E961E8ZKZKJ4BF,33,0,0,1.0,20,1,218,21,0,1.0,asocial
01JTS6YSGKD8E961E8ZKZKJ4BF,33,1,0,1.0,1,1,2,2,0,1.0,asocial
01JTS6YSGKD8E961E8ZKZKJ4BF,33,2,0,1.0,0,0,2,1,0,1.0,asocial
01JTS6YSGKD8E961E8ZKZKJ4BF,33,3,0,1.0,1,0,3,1,0,1.0,asocial
01JTS6YSGKD8E961E8ZKZKJ4BF,33,4,0,1.0,0,0,0,3,0,1.0,asocial
01JTS6YSGKD8E961E8ZKZKJ4BF,33,5,0,1.0,3,3,43,7,0,1.0,asocial
01JTS6YSGKD8E961E8ZKZKJ4BF,33,6,0,1.0,0,0,2,1,0,1.0,asocial
01JTS6YSGKD8E961E8ZKZKJ4BF,33,7,0,1.0,0,0,2,1,0,1.0,asocial
01JTS6YSGKD8E961E8ZKZKJ4BF,33,8,0,1.0,1,0,6,1,0,1.0,asocial
01JTS6YSGKD8E961E8ZKZKJ4BF,33,9,0,1.0,1,0,1,0,0,1.0,asocial
01JTS6YSGKD8E961E8ZKZKJ4BF,34,0,0,1.0,21,1,226,21,0,1.0,asocial
01JTS6YSGKD8E961E8ZKZKJ4BF,34,1,0,1.0,1,1,2,2,0,1.0,asocial
01JTS6YSGKD8E961E8ZKZKJ4BF,34,2,0,1.0,0,0,2,1,0,1.0,asocial
01JTS6YSGKD8E961E8ZKZKJ4BF,34,3,0,1.0,1,0,3,1,0,1.0,asocial
01JTS6YSGKD8E961E8ZKZKJ4BF,34,4,0,1.0,0,0,0,3,0,1.0,asocial
01JTS6YSGKD8E961E8ZKZKJ4BF,34,5,0,1.0,3,3,45,7,0,1.0,asocial
01JTS6YSGKD8E961E8ZKZKJ4BF,34,6,0,1.0,0,0,2,1,0,1.0,asocial
01JTS6YSGKD8E961E8ZKZKJ4BF,34,7,0,1.0,0,0,2,1,0,1.0,asocial
01JTS6YSGKD8E961E8ZKZKJ4BF,34,8,0,1.0,1,0,6,1,0,1.0,asocial
01JTS6YSGKD8E961E8ZKZKJ4BF,34,9,0,1.0,1,0,1,0,0,1.0,asocial
01JTS6YSGKD8E961E8ZKZKJ4BF,35,0,0,1.0,22,1,236,21,0,1.0,asocial
01JTS6YSGKD8E961E8ZKZKJ4BF,35,1,0,1.0,1,1,2,2,0,1.0,asocial
01JTS6YSGKD8E961E8ZKZKJ4BF,35,2,0,1.0,0,0,2,1,0,1.0,asocial
01JTS6YSGKD8E961E8ZKZKJ4BF,35,3,0,1.0,1,0,3,1,0,1.0,asocial
01JTS6YSGKD8E961E8ZKZKJ4BF,35,4,0,1.0,0,0,0,3,0,1.0,asocial
01JTS6YSGKD8E961E8ZKZKJ4BF,35,5,0,1.0,3,3,45,7,0,1.0,asocial
01JTS6YSGKD8E961E8ZKZKJ4BF,35,6,0,1.0,0,0,2,1,0,1.0,asocial
01JTS6YSGKD8E961E8ZKZKJ4BF,35,7,0,1.0,0,0,2,1,0,1.0,asocial
01JTS6YSGKD8E961E8ZKZKJ4BF,35,8,0,1.0,1,0,6,1,0,1.0,asocial
01JTS6YSGKD8E961E8ZKZKJ4BF,35,9,0,1.0,1,0,1,0,0,1.0,asocial
01JTS6YSGKD8E961E8ZKZKJ4BF,36,0,0,1.0,23,1,243,22,0,1.0,asocial
01JTS6YSGKD8E961E8ZKZKJ4BF,36,1,0,1.0,1,1,2,2,0,1.0,asocial
01JTS6YSGKD8E961E8ZKZKJ4BF,36,2,0,1.0,0,0,2,1,0,1.0,asocial
01JTS6YSGKD8E961E8ZKZKJ4BF,36,3,0,1.0,1,0,3,1,0,1.0,asocial
01JTS6YSGKD8E961E8ZKZKJ4BF,36,4,0,1.0,0,0,0,3,0,1.0,asocial
01JTS6YSGKD8E961E8ZKZKJ4BF,36,5,0,1.0,3,3,46,7,0,1.0,asocial
01JTS6YSGKD8E961E8ZKZKJ4BF,36,6,0,1.0,0,0,2,1,0,1.0,asocial
01JTS6YSGKD8E961E8ZKZKJ4BF,36,7,0,1.0,0,0,2,1,0,1.0,asocial
01JTS6YSGKD8E961E8ZKZKJ4BF,36,8,0,1.0,1,0,6,1,0,1.0,asocial
01JTS6YSGKD8E961E8ZKZKJ4BF,36,9,0,1.0,1,0,1,0,0,1.0,asocial
01JTS6YSGKD8E961E8ZKZKJ4BF,37,0,0,1.0,24,1,250,23,0,1.0,asocial
01JTS6YSGKD8E961E8ZKZKJ4BF,37,1,0,1.0,1,1,2,2,0,1.0,asocial
01JTS6YSGKD8E961E8ZKZKJ4BF,37,2,0,1.0,0,0,2,1,0,1.0,asocial
01JTS6YSGKD8E961E8ZKZKJ4BF,37,3,0,1.0,1,0,3,1,0,1.0,asocial
01JTS6YSGKD8E961E8ZKZKJ4BF,37,4,0,1.0,0,0,0,3,0,1.0,asocial
01JTS6YSGKD8E961E8ZKZKJ4BF,37,5,0,1.0,3,3,46,7,0,1.0,asocial
01JTS6YSGKD8E961E8ZKZKJ4BF,37,6,0,1.0,0,0,2,1,0,1.0,asocial
01JTS6YSGKD8E961E8ZKZKJ4BF,37,7,0,1.0,0,0,2,1,0,1.0,asocial
01JTS6YSGKD8E961E8ZKZKJ4BF,37,8,0,1.0,1,0,7,1,0,1.0,asocial
01JTS6YSGKD8E961E8ZKZKJ4BF,37,9,0,1.0,1,0,1,0,0,1.0,asocial
01JTS6YSGKD8E961E8ZKZKJ4BF,38,0,0,1.0,25,1,257,24,0,1.0,asocial
01JTS6YSGKD8E961E8ZKZKJ4BF,38,1,0,1.0,1,1,2,2,0,1.0,asocial
01JTS6YSGKD8E961E8ZKZKJ4BF,38,2,0,1.0,0,0,2,1,0,1.0,asocial
01JTS6YSGKD8E961E8ZKZKJ4BF,38,3,0,1.0,1,0,3,1,0,1.0,asocial
01JTS6YSGKD8E961E8ZKZKJ4BF,38,4,0,1.0,0,0,0,3,0,1.0,asocial
01JTS6YSGKD8E961E8ZKZKJ4BF,38,5,0,1.0,3,3,47,7,0,1.0,asocial
01JTS6YSGKD8E961E8ZKZKJ4BF,38,6,0,1.0,0,0,2,1,0,1.0,asocial
01JTS6YSGKD8E961E8ZKZKJ4BF,38,7,0,1.0,0,0,2,1,0,1.0,asocial
01JTS6YSGKD8E961E8ZKZKJ4BF,38,8,0,1.0,1,0,8,1,0,1.0,asocial
01JTS6YSGKD8E961E8ZKZKJ4BF,38,9,0,1.0,1,0,1,0,0,1.0,asocial
01JTS6YSGKD8E961E8ZKZKJ4BF,39,0,0,1.0,26,1,265,25,0,1.0,asocial
01JTS6YSGKD8E961E8ZKZKJ4BF,39,1,0,1.0,1,1,2,2,0,1.0,asocial
01JTS6YSGKD8E961E8ZKZKJ4BF,39,2,0,1.0,0,0,2,1,0,1.0,asocial
01JTS6YSGKD8E961E8ZKZKJ4BF,39,3,0,1.0,1,0,3,1,0,1.0,asocial
01JTS6YSGKD8E961E8ZKZKJ4BF,39,4,0,1.0,0,0,0,3,0,1.0,asocial
01JTS6YSGKD8E961E8ZKZKJ4BF,39,5,0,1.0,3,3,47,7,0,1.0,asocial
01JTS6YSGKD8E961E8ZKZKJ4BF,39,6,0,1.0,0,0,2,1,0,1.0,asocial
01JTS6YSGKD8E961E8ZKZKJ4BF,39,7,0,1.0,0,0,2,1,0,1.0,asocial
01JTS6YSGKD8E961E8ZKZKJ4BF,39,8,0,1.0,1,0,9,1,0,1.0,asocial
01JTS6YSGKD8E961E8ZKZKJ4BF,39,9,0,1.0,1,0,1,0,0,1.0,asocial
01JTS6YSGKD8E961E8ZKZKJ4BF,40,0,0,1.0,27,1,274,25,0,1.0,asocial
01JTS6YSGKD8E961E8ZKZKJ4BF,40,1,0,1.0,1,1,2,2,0,1.0,asocial
01JTS6YSGKD8E961E8ZKZKJ4BF,40,2,0,1.0,0,0,2,1,0,1.0,asocial
01JTS6YSGKD8E961E8ZKZKJ4BF,40,3,0,1.0,1,0,3,1,0,1.0,asocial
01JTS6YSGKD8E961E8ZKZKJ4BF,40,4,0,1.0,0,0,0,3,0,1.0,asocial
01JTS6YSGKD8E961E8ZKZKJ4BF,40,5,0,1.0,3,3,47,7,0,1.0,asocial
01JTS6YSGKD8E961E8ZKZKJ4BF,40,6,0,1.0,0,0,2,1,0,1.0,asocial
01JTS6YSGKD8E961E8ZKZKJ4BF,40,7,0,1.0,0,0,2,1,0,1.0,asocial
01JTS6YSGKD8E961E8ZKZKJ4BF,40,8,0,1.0,1,0,10,1,0,1.0,asocial
01JTS6YSGKD8E961E8ZKZKJ4BF,40,9,0,1.0,1,0,1,0,0,1.0,asocial
01JTS6YSGKD8E961E8ZKZKJ4BF,41,0,0,0.0,28,1,282,26,0,1.0,asocial
01JTS6YSGKD8E961E8ZKZKJ4BF,41,1,0,0.0,1,1,2,2,0,1.0,asocial
01JTS6YSGKD8E961E8ZKZKJ4BF,41,2,0,0.0,0,0,2,1,0,1.0,asocial
01JTS6YSGKD8E961E8ZKZKJ4BF,41,3,0,0.0,1,0,3,1,0,1.0,asocial
01JTS6YSGKD8E961E8ZKZKJ4BF,41,4,0,0.0,0,0,0,3,0,1.0,asocial
01JTS6YSGKD8E961E8ZKZKJ4BF,41,5,0,0.0,3,3,48,7,0,1.0,asocial
01JTS6YSGKD8E961E8ZKZKJ4BF,41,6,0,0.0,0,0,2,1,0,1.0,asocial
01JTS6YSGKD8E961E8ZKZKJ4BF,41,7,0,0.0,0,0,2,1,0,1.0,asocial
01JTS6YSGKD8E961E8ZKZKJ4BF,41,8,0,0.0,1,0,10,1,0,1.0,asocial
01JTS6YSGKD8E961E8ZKZKJ4BF,41,9,0,0.0,1,0,1,0,0,1.0,asocial
01JTS6YSGKD8E961E8ZKZKJ4BF,42,0,0,1.0,28,2,289,28,0,0.0,asocial
01JTS6YSGKD8E961E8ZKZKJ4BF,42,1,0,1.0,1,1,2,2,0,0.0,asocial
01JTS6YSGKD8E961E8ZKZKJ4BF,42,2,0,1.0,0,0,2,1,0,0.0,asocial
01JTS6YSGKD8E961E8ZKZKJ4BF,42,3,0,1.0,1,0,3,1,0,0.0,asocial
01JTS6YSGKD8E961E8ZKZKJ4BF,42,4,0,1.0,0,0,0,3,0,0.0,asocial
01JTS6YSGKD8E961E8ZKZKJ4BF,42,5,0,1.0,3,3,48,7,0,0.0,asocial
01JTS6YSGKD8E961E8ZKZKJ4BF,42,6,0,1.0,0,0,2,1,0,0.0,asocial
01JTS6YSGKD8E961E8ZKZKJ4BF,42,7,0,1.0,0,0,2,1,0,0.0,asocial
01JTS6YSGKD8E961E8ZKZKJ4BF,42,8,0,1.0,1,0,10,2,0,0.0,asocial
01JTS6YSGKD8E961E8ZKZKJ4BF,42,9,0,1.0,1,0,1,0,0,0.0,asocial
01JTS6YSGKD8E961E8ZKZKJ4BF,43,0,0,1.0,29,2,297,28,0,1.0,asocial
01JTS6YSGKD8E961E8ZKZKJ4BF,43,1,0,1.0,1,1,2,2,0,1.0,asocial
01JTS6YSGKD8E961E8ZKZKJ4BF,43,2,0,1.0,0,0,2,1,0,1.0,asocial
01JTS6YSGKD8E961E8ZKZKJ4BF,43,3,0,1.0,1,0,3,1,0,1.0,asocial
01JTS6YSGKD8E961E8ZKZKJ4BF,43,4,0,1.0,0,0,0,3,0,1.0,asocial
01JTS6YSGKD8E961E8ZKZKJ4BF,43,5,0,1.0,3,3,49,7,0,1.0,asocial
01JTS6YSGKD8E961E8ZKZKJ4BF,43,6,0,1.0,0,0,2,1,0,1.0,asocial
01JTS6YSGKD8E961E8ZKZKJ4BF,43,7,0,1.0,0,0,2,1,0,1.0,asocial
01JTS6YSGKD8E961E8ZKZKJ4BF,43,8,0,1.0,1,0,11,2,0,1.0,asocial
01JTS6YSGKD8E961E8ZKZKJ4BF,43,9,0,1.0,1,0,1,0,0,1.0,asocial
01JTS6YSGKD8E961E8ZKZKJ4BF,44,0,0,1.0,30,2,305,28,0,1.0,asocial
01JTS6YSGKD8E961E8ZKZKJ4BF,44,1,0,1.0,1,1,2,2,0,1.0,asocial
01JTS6YSGKD8E961E8ZKZKJ4BF,44,2,0,1.0,0,0,2,1,0,1.0,asocial
01JTS6YSGKD8E961E8ZKZKJ4BF,44,3,0,1.0,1,0,3,1,0,1.0,asocial
01JTS6YSGKD8E961E8ZKZKJ4BF,44,4,0,1.0,0,0,0,3,0,1.0,asocial
01JTS6YSGKD8E961E8ZKZKJ4BF,44,5,0,1.0,3,3,50,7,0,1.0,asocial
01JTS6YSGKD8E961E8ZKZKJ4BF,44,6,0,1.0,0,0,2,1,0,1.0,asocial
01JTS6YSGKD8E961E8ZKZKJ4BF,44,7,0,1.0,0,0,2,1,0,1.0,asocial
01JTS6YSGKD8E961E8ZKZKJ4BF,44,8,0,1.0,1,0,12,2,0,1.0,asocial
01JTS6YSGKD8E961E8ZKZKJ4BF,44,9,0,1.0,1,0,1,0,0,1.0,asocial
01JTS6YSGKD8E961E8ZKZKJ4BF,45,0,0,1.0,31,2,314,28,0,1.0,asocial
01JTS6YSGKD8E961E8ZKZKJ4BF,45,1,0,1.0,1,1,2,2,0,1.0,asocial
01JTS6YSGKD8E961E8ZKZKJ4BF,45,2,0,1.0,0,0,2,1,0,1.0,asocial
01JTS6YSGKD8E961E8ZKZKJ4BF,45,3,0,1.0,1,0,3,1,0,1.0,asocial
01JTS6YSGKD8E961E8ZKZKJ4BF,45,4,0,1.0,0,0,0,3,0,1.0,asocial
01JTS6YSGKD8E961E8ZKZKJ4BF,45,5,0,1.0,3,3,50,7,0,1.0,asocial
01JTS6YSGKD8E961E8ZKZKJ4BF,45,6,0,1.0,0,0,2,1,0,1.0,asocial
01JTS6YSGKD8E961E8ZKZKJ4BF,45,7,0,1.0,0,0,2,1,0,1.0,asocial
01JTS6YSGKD8E961E8ZKZKJ4BF,45,8,0,1.0,1,0,13,2,0,1.0,asocial
01JTS6YSGKD8E961E8ZKZKJ4BF,45,9,0,1.0,1,0,1,0,0,1.0,asocial
01JTS6YSGKD8E961E8ZKZKJ4BF,46,0,0,1.0,32,2,321,30,0,1.0,asocial
01JTS6YSGKD8E961E8ZKZKJ4BF,46,1,0,1.0,1,1,2,2,0,1.0,asocial
01JTS6YSGKD8E961E8ZKZKJ4BF,46,2,0,1.0,0,0,2,1,0,1.0,asocial
01JTS6YSGKD8E961E8ZKZKJ4BF,46,3,0,1.0,1,0,3,1,0,1.0,asocial
01JTS6YSGKD8E961E8ZKZKJ4BF,46,4,0,1.0,0,0,0,3,0,1.0,asocial
01JTS6YSGKD8E961E8ZKZKJ4BF,46,5,0,1.0,3,3,50,7,0,1.0,asocial
01JTS6YSGKD8E961E8ZKZKJ4BF,46,6,0,1.0,0,0,2,1,0,1.0,asocial
01JTS6YSGKD8E961E8ZKZKJ4BF,46,7,0,1.0,0,0,2,1,0,1.0,asocial
01JTS6YSGKD8E961E8ZKZKJ4BF,46,8,0,1.0,1,0,14,2,0,1.0,asocial
01JTS6YSGKD8E961E8ZKZKJ4BF,46,9,0,1.0,1,0,1,0,0,1.0,asocial
01JTS6YSGKD8E961E8ZKZKJ4BF,47,0,0,1.0,33,2,329,31,0,1.0,asocial
01JTS6YSGKD8E961E8ZKZKJ4BF,47,1,0,1.0,1,1,2,2,0,1.0,asocial
01JTS6YSGKD8E961E8ZKZKJ4BF,47,2,0,1.0,0,0,2,1,0,1.0,asocial
01JTS6YSGKD8E961E8ZKZKJ4BF,47,3,0,1.0,1,0,3,1,0,1.0,asocial
01JTS6YSGKD8E961E8ZKZKJ4BF,47,4,0,1.0,0,0,0,3,0,1.0,asocial
01JTS6YSGKD8E961E8ZKZKJ4BF,47,5,0,1.0,3,3,50,7,0,1.0,asocial
01JTS6YSGKD8E961E8ZKZKJ4BF,47,6,0,1.0,0,0,2,1,0,1.0,asocial
01JTS6YSGKD8E961E8ZKZKJ4BF,47,7,0,1.0,0,0,2,1,0,1.0,asocial
01JTS6YSGKD8E961E8ZKZKJ4BF,47,8,0,1.0,1,0,15,2,0,1.0,asocial
01JTS6YSGKD8E961E8ZKZKJ4BF,47,9,0,1.0,1,0,1,0,0,1.0,asocial
01JTS6YSGKD8E961E8ZKZKJ4BF,48,0,0,1.0,34,2,337,32,0,1.0,asocial
01JTS6YSGKD8E961E8ZKZKJ4BF,48,1,0,1.0,1,1,2,2,0,1.0,asocial
01JTS6YSGKD8E961E8ZKZKJ4BF,48,2,0,1.0,0,0,2,1,0,1.0,asocial
01JTS6YSGKD8E961E8ZKZKJ4BF,48,3,0,1.0,1,0,3,1,0,1.0,asocial
01JTS6YSGKD8E961E8ZKZKJ4BF,48,4,0,1.0,0,0,0,3,0,1.0,asocial
01JTS6YSGKD8E961E8ZKZKJ4BF,48,5,0,1.0,3,3,50,7,0,1.0,asocial
01JTS6YSGKD8E961E8ZKZKJ4BF,48,6,0,1.0,0,0,2,1,0,1.0,asocial
01JTS6YSGKD8E961E8ZKZKJ4BF,48,7,0,1.0,0,0,2,1,0,1.0,asocial
01JTS6YSGKD8E961E8ZKZKJ4BF,48,8,0,1.0,1,0,16,2,0,1.0,asocial
01JTS6YSGKD8E961E8ZKZKJ4BF,48,9,0,1.0,1,0,1,0,0,1.0,asocial
01JTS6YSGKD8E961E8ZKZKJ4BF,49,0,0,1.0,35,2,345,33,0,1.0,asocial
01JTS6YSGKD8E961E8ZKZKJ4BF,49,1,0,1.0,1,1,2,2,0,1.0,asocial
01JTS6YSGKD8E961E8ZKZKJ4BF,49,2,0,1.0,0,0,2,1,0,1.0,asocial
01JTS6YSGKD8E961E8ZKZKJ4BF,49,3,0,1.0,1,0,3,1,0,1.0,asocial
01JTS6YSGKD8E961E8ZKZKJ4BF,49,4,0,1.0,0,0,0,3,0,1.0,asocial
01JTS6YSGKD8E961E8ZKZKJ4BF,49,5,0,1.0,3,3,50,7,0,1.0,asocial
01JTS6YSGKD8E961E8ZKZKJ4BF,49,6,0,1.0,0,0,2,1,0,1.0,asocial
01JTS6YSGKD8E961E8ZKZKJ4BF,49,7,0,1.0,0,0,2,1,0,1.0,asocial
01JTS6YSGKD8E961E8ZKZKJ4BF,49,8,0,1.0,1,0,17,2,0,1.0,asocial
01JTS6YSGKD8E961E8ZKZKJ4BF,49,9,0,1.0,1,0,1,0,0,1.0,asocial
01JTS6YSGKD8E961E8ZKZKJ4BF,50,0,0,1.0,36,2,353,34,0,1.0,asocial
01JTS6YSGKD8E961E8ZKZKJ4BF,50,1,0,1.0,1,1,2,2,0,1.0,asocial
01JTS6YSGKD8E961E8ZKZKJ4BF,50,2,0,1.0,0,0,2,1,0,1.0,asocial
01JTS6YSGKD8E961E8ZKZKJ4BF,50,3,0,1.0,1,0,3,1,0,1.0,asocial
01JTS6YSGKD8E961E8ZKZKJ4BF,50,4,0,1.0,0,0,0,3,0,1.0,asocial
01JTS6YSGKD8E961E8ZKZKJ4BF,50,5,0,1.0,3,3,50,7,0,1.0,asocial
01JTS6YSGKD8E961E8ZKZKJ4BF,50,6,0,1.0,0,0,2,1,0,1.0,asocial
01JTS6YSGKD8E961E8ZKZKJ4BF,50,7,0,1.0,0,0,2,1,0,1.0,asocial
01JTS6YSGKD8E961E8ZKZKJ4BF,50,8,0,1.0,1,0,18,2,0,1.0,asocial
01JTS6YSGKD8E961E8ZKZKJ4BF,50,9,0,1.0,1,0,1,0,0,1.0,asocial
01JTS6YSGKD8E961E8ZKZKJ4BF,51,0,0,0.0,37,2,361,35,0,1.0,asocial
01JTS6YSGKD8E961E8ZKZKJ4BF,51,1,0,0.0,1,1,2,2,0,1.0,asocial
01JTS6YSGKD8E961E8ZKZKJ4BF,51,2,0,0.0,0,0,2,1,0,1.0,asocial
01JTS6YSGKD8E961E8ZKZKJ4BF,51,3,0,0.0,1,0,3,1,0,1.0,asocial
01JTS6YSGKD8E961E8ZKZKJ4BF,51,4,0,0.0,0,0,0,3,0,1.0,asocial
01JTS6YSGKD8E961E8ZKZKJ4BF,51,5,0,0.0,3,3,50,7,0,1.0,asocial
01JTS6YSGKD8E961E8ZKZKJ4BF,51,6,0,0.0,0,0,2,1,0,1.0,asocial
01JTS6YSGKD8E961E8ZKZKJ4BF,51,7,0,0.0,0,0,2,1,0,1.0,asocial
01JTS6YSGKD8E961E8ZKZKJ4BF,51,8,0,0.0,1,0,19,2,0,1.0,asocial
01JTS6YSGKD8E961E8ZKZKJ4BF,51,9,0,0.0,1,0,1,0,0,1.0,asocial
01JTS6Z36TH1E3M89RSZA5MMFJ,1,0,8,1.0,0,0,0,0,-1,,asocial
01JTS6Z36TH1E3M89RSZA5MMFJ,1,1,8,1.0,0,0,0,0,-1,,asocial
01JTS6Z36TH1E3M89RSZA5MMFJ,1,2,8,1.0,0,0,0,0,-1,,asocial
01JTS6Z36TH1E3M89RSZA5MMFJ,1,3,8,1.0,0,0,0,0,-1,,asocial
01JTS6Z36TH1E3M89RSZA5MMFJ,1,4,8,1.0,0,0,0,0,-1,,asocial
01JTS6Z36TH1E3M89RSZA5MMFJ,1,5,8,1.0,0,0,0,0,-1,,asocial
01JTS6Z36TH1E3M89RSZA5MMFJ,1,6,8,1.0,0,0,0,0,-1,,asocial
01JTS6Z36TH1E3M89RSZA5MMFJ,1,7,8,1.0,0,0,0,0,-1,,asocial
01JTS6Z36TH1E3M89RSZA5MMFJ,1,8,8,1.0,0,0,0,0,-1,,asocial
01JTS6Z36TH1E3M89RSZA5MMFJ,1,9,8,1.0,0,0,0,0,-1,,asocial
01JTS6Z36TH1E3M89RSZA5MMFJ,3,0,5,1.0,0,0,2,0,-1,,asocial
01JTS6Z36TH1E3M89RSZA5MMFJ,3,1,5,1.0,0,0,1,1,-1,,asocial
01JTS6Z36TH1E3M89RSZA5MMFJ,3,2,5,1.0,0,0,1,1,-1,,asocial
01JTS6Z36TH1E3M89RSZA5MMFJ,3,3,5,1.0,0,0,1,0,-1,,asocial
01JTS6Z36TH1E3M89RSZA5MMFJ,3,4,5,1.0,0,0,0,2,-1,,asocial
01JTS6Z36TH1E3M89RSZA5MMFJ,3,5,5,1.0,0,0,2,0,-1,,asocial
01JTS6Z36TH1E3M89RSZA5MMFJ,3,6,5,1.0,0,0,2,0,-1,,asocial
01JTS6Z36TH1E3M89RSZA5MMFJ,3,7,5,1.0,0,0,2,0,-1,,asocial
01JTS6Z36TH1E3M89RSZA5MMFJ,3,8,5,1.0,1,0,2,0,-1,,asocial
01JTS6Z36TH1E3M89RSZA5MMFJ,3,9,5,1.0,0,0,1,0,-1,,asocial
01JTS6Z36TH1E3M89RSZA5MMFJ,4,0,5,1.0,0,0,4,0,5,1.0,asocial
01JTS6Z36TH1E3M89RSZA5MMFJ,4,1,5,1.0,0,0,1,1,5,1.0,asocial
01JTS6Z36TH1E3M89RSZA5MMFJ,4,2,5,1.0,0,0,2,1,5,1.0,asocial
01JTS6Z36TH1E3M89RSZA5MMFJ,4,3,5,1.0,0,0,3,1,5,1.0,asocial
01JTS6Z36TH1E3M89RSZA5MMFJ,4,4,5,1.0,0,0,0,2,5,1.0,asocial
01JTS6Z36TH1E3M89RSZA5MMFJ,4,5,5,1.0,1,0,4,0,5,1.0,asocial
01JTS6Z36TH1E3M89RSZA5MMFJ,4,6,5,1.0,0,0,2,1,5,1.0,asocial
01JTS6Z36TH1E3M89RSZA5MMFJ,4,7,5,1.0,0,0,2,1,5,1.0,asocial
01JTS6Z36TH1E3M89RSZA5MMFJ,4,8,5,1.0,1,0,2,0,5,1.0,asocial
01JTS6Z36TH1E3M89RSZA5MMFJ,4,9,5,1.0,0,0,1,0,5,1.0,asocial
01JTS6Z36TH1E3M89RSZA5MMFJ,5,0,5,1.0,0,0,9,1,5,1.0,asocial
01JTS6Z36TH1E3M89RSZA5MMFJ,5,1,5,1.0,0,0,1,1,5,1.0,asocial
01JTS6Z36TH1E3M89RSZA5MMFJ,5,2,5,1.0,0,0,2,1,5,1.0,asocial
01JTS6Z36TH1E3M89RSZA5MMFJ,5,3,5,1.0,0,0,3,1,5,1.0,asocial
01JTS6Z36TH1E3M89RSZA5MMFJ,5,4,5,1.0,0,0,0,2,5,1.0,asocial
01JTS6Z36TH1E3M89RSZA5MMFJ,5,5,5,1.0,2,0,8,0,5,1.0,asocial
01JTS6Z36TH1E3M89RSZA5MMFJ,5,6,5,1.0,0,0,2,1,5,1.0,asocial
01JTS6Z36TH1E3M89RSZA5MMFJ,5,7,5,1.0,0,0,2,1,5,1.0,asocial
01JTS6Z36TH1E3M89RSZA5MMFJ,5,8,5,1.0,1,0,2,0,5,1.0,asocial
01JTS6Z36TH1E3M89RSZA5MMFJ,5,9,5,1.0,0,0,1,0,5,1.0,asocial
01JTS6Z36TH1E3M89RSZA5MMFJ,6,0,0,1.0,0,0,14,2,5,1.0,asocial
01JTS6Z36TH1E3M89RSZA5MMFJ,6,1,0,1.0,0,0,1,1,5,1.0,asocial
01JTS6Z36TH1E3M89RSZA5MMFJ,6,2,0,1.0,0,0,2,1,5,1.0,asocial
01JTS6Z36TH1E3M89RSZA5MMFJ,6,3,0,1.0,0,0,3,1,5,1.0,asocial
01JTS6Z36TH1E3M89RSZA5MMFJ,6,4,0,1.0,0,0,0,2,5,1.0,asocial
01JTS6Z36TH1E3M89RSZA5MMFJ,6,5,0,1.0,3,0,11,1,5,1.0,asocial
01JTS6Z36TH1E3M89RSZA5MMFJ,6,6,0,1.0,0,0,2,1,5,1.0,asocial
01JTS6Z36TH1E3M89RSZA5MMFJ,6,7,0,1.0,0,0,2,1,5,1.0,asocial
01JTS6Z36TH1E3M89RSZA5MMFJ,6,8,0,1.0,1,0,2,0,5,1.0,asocial
01JTS6Z36TH1E3M89RSZA5MMFJ,6,9,0,1.0,0,0,1,0,5,1.0,asocial
01JTS6Z36TH1E3M89RSZA5MMFJ,7,0,5,1.0,1,0,21,4,0,1.0,asocial
01JTS6Z36TH1E3M89RSZA5MMFJ,7,1,5,1.0,0,0,2,1,0,1.0,asocial
01JTS6Z36TH1E3M89RSZA5MMFJ,7,2,5,1.0,0,0,2,1,0,1.0,asocial
01JTS6Z36TH1E3M89RSZA5MMFJ,7,3,5,1.0,0,0,3,1,0,1.0,asocial
01JTS6Z36TH1E3M89RSZA5MMFJ,7,4,5,1.0,0,0,0,2,0,1.0,asocial
01JTS6Z36TH1E3M89RSZA5MMFJ,7,5,5,1.0,3,0,11,1,0,1.0,asocial
01JTS6Z36TH1E3M89RSZA5MMFJ,7,6,5,1.0,0,0,2,1,0,1.0,asocial
01JTS6Z36TH1E3M89RSZA5MMFJ,7,7,5,1.0,0,0,2,1,0,1.0,asocial
01JTS6Z36TH1E3M89RSZA5MMFJ,7,8,5,1.0,1,0,2,0,0,1.0,asocial
01JTS6Z36TH1E3M89RSZA5MMFJ,7,9,5,1.0,0,0,1,0,0,1.0,asocial
01JTS6Z36TH1E3M89RSZA5MMFJ,8,0,5,1.0,1,0,26,4,5,1.0,asocial
01JTS6Z36TH1E3M89RSZA5MMFJ,8,1,5,1.0,0,0,2,1,5,1.0,asocial
01JTS6Z36TH1E3M89RSZA5MMFJ,8,2,5,1.0,0,0,2,1,5,1.0,asocial
01JTS6Z36TH1E3M89RSZA5MMFJ,8,3,5,1.0,0,0,3,1,5,1.0,asocial
01JTS6Z36TH1E3M89RSZA5MMFJ,8,4,5,1.0,0,0,0,2,5,1.0,asocial
01JTS6Z36TH1E3M89RSZA5MMFJ,8,5,5,1.0,4,0,15,2,5,1.0,asocial
01JTS6Z36TH1E3M89RSZA5MMFJ,8,6,5,1.0,0,0,2,1,5,1.0,asocial
01JTS6Z36TH1E3M89RSZA5MMFJ,8,7,5,1.0,0,0,2,1,5,1.0,asocial
01JTS6Z36TH1E3M89RSZA5MMFJ,8,8,5,1.0,1,0,2,0,5,1.0,asocial
01JTS6Z36TH1E3M89RSZA5MMFJ,8,9,5,1.0,0,0,1,0,5,1.0,asocial
01JTS6Z36TH1E3M89RSZA5MMFJ,9,0,5,1.0,1,0,33,4,5,1.0,asocial
01JTS6Z36TH1E3M89RSZA5MMFJ,9,1,5,1.0,0,0,2,1,5,1.0,asocial
01JTS6Z36TH1E3M89RSZA5MMFJ,9,2,5,1.0,0,0,2,1,5,1.0,asocial
01JTS6Z36TH1E3M89RSZA5MMFJ,9,3,5,1.0,0,0,3,1,5,1.0,asocial
01JTS6Z36TH1E3M89RSZA5MMFJ,9,4,5,1.0,0,0,0,2,5,1.0,asocial
01JTS6Z36TH1E3M89RSZA5MMFJ,9,5,5,1.0,5,0,18,2,5,1.0,asocial
01JTS6Z36TH1E3M89RSZA5MMFJ,9,6,5,1.0,0,0,2,1,5,1.0,asocial
01JTS6Z36TH1E3M89RSZA5MMFJ,9,7,5,1.0,0,0,2,1,5,1.0,asocial
01JTS6Z36TH1E3M89RSZA5MMFJ,9,8,5,1.0,1,0,2,0,5,1.0,asocial
01JTS6Z36TH1E3M89RSZA5MMFJ,9,9,5,1.0,0,0,1,0,5,1.0,asocial
01JTS6Z36TH1E3M89RSZA5MMFJ,10,0,5,1.0,1,0,39,6,5,1.0,asocial
01JTS6Z36TH1E3M89RSZA5MMFJ,10,1,5,1.0,0,0,2,1,5,1.0,asocial
01JTS6Z36TH1E3M89RSZA5MMFJ,10,2,5,1.0,0,0,2,1,5,1.0,asocial
01JTS6Z36TH1E3M89RSZA5MMFJ,10,3,5,1.0,0,0,3,1,5,1.0,asocial
01JTS6Z36TH1E3M89RSZA5MMFJ,10,4,5,1.0,0,0,0,2,5,1.0,asocial
01JTS6Z36TH1E3M89RSZA5MMFJ,10,5,5,1.0,6,0,19,3,5,1.0,asocial
01JTS6Z36TH1E3M89RSZA5MMFJ,10,6,5,1.0,0,0,2,1,5,1.0,asocial
01JTS6Z36TH1E3M89RSZA5MMFJ,10,7,5,1.0,0,0,2,1,5,1.0,asocial
01JTS6Z36TH1E3M89RSZA5MMFJ,10,8,5,1.0,1,0,2,0,5,1.0,asocial
01JTS6Z36TH1E3M89RSZA5MMFJ,10,9,5,1.0,0,0,1,0,5,1.0,asocial
01JTS6Z36TH1E3M89RSZA5MMFJ,11,0,5,1.0,1,0,44,8,5,1.0,asocial
01JTS6Z36TH1E3M89RSZA5MMFJ,11,1,5,1.0,0,0,2,1,5,1.0,asocial
01JTS6Z36TH1E3M89RSZA5MMFJ,11,2,5,1.0,0,0,2,1,5,1.0,asocial
01JTS6Z36TH1E3M89RSZA5MMFJ,11,3,5,1.0,0,0,3,1,5,1.0,asocial
01JTS6Z36TH1E3M89RSZA5MMFJ,11,4,5,1.0,0,0,0,2,5,1.0,asocial
01JTS6Z36TH1E3M89RSZA5MMFJ,11,5,5,1.0,7,0,21,4,5,1.0,asocial
01JTS6Z36TH1E3M89RSZA5MMFJ,11,6,5,1.0,0,0,2,1,5,1.0,asocial
01JTS6Z36TH1E3M89RSZA5MMFJ,11,7,5,1.0,0,0,2,1,5,1.0,asocial
01JTS6Z36TH1E3M89RSZA5MMFJ,11,8,5,1.0,1,0,2,0,5,1.0,asocial
01JTS6Z36TH1E3M89RSZA5MMFJ,11,9,5,1.0,0,0,1,0,5,1.0,asocial
01JTS6Z36TH1E3M89RSZA5MMFJ,12,0,5,1.0,1,0,51,9,5,1.0,asocial
01JTS6Z36TH1E3M89RSZA5MMFJ,12,1,5,1.0,0,0,2,1,5,1.0,asocial
01JTS6Z36TH1E3M89RSZA5MMFJ,12,2,5,1.0,0,0,2,1,5,1.0,asocial
01JTS6Z36TH1E3M89RSZA5MMFJ,12,3,5,1.0,0,0,3,1,5,1.0,asocial
01JTS6Z36TH1E3M89RSZA5MMFJ,12,4,5,1.0,0,0,0,2,5,1.0,asocial
01JTS6Z36TH1E3M89RSZA5MMFJ,12,5,5,1.0,8,0,23,4,5,1.0,asocial
01JTS6Z36TH1E3M89RSZA5MMFJ,12,6,5,1.0,0,0,2,1,5,1.0,asocial
01JTS6Z36TH1E3M89RSZA5MMFJ,12,7,5,1.0,0,0,2,1,5,1.0,asocial
01JTS6Z36TH1E3M89RSZA5MMFJ,12,8,5,1.0,1,0,2,0,5,1.0,asocial
01JTS6Z36TH1E3M89RSZA5MMFJ,12,9,5,1.0,0,0,1,0,5,1.0,asocial
01JTS6Z36TH1E3M89RSZA5MMFJ,13,0,5,1.0,1,0,58,10,5,1.0,asocial
01JTS6Z36TH1E3M89RSZA5MMFJ,13,1,5,1.0,0,0,2,1,5,1.0,asocial
01JTS6Z36TH1E3M89RSZA5MMFJ,13,2,5,1.0,0,0,2,1,5,1.0,asocial
01JTS6Z36TH1E3M89RSZA5MMFJ,13,3,5,1.0,0,0,3,1,5,1.0,asocial
01JTS6Z36TH1E3M89RSZA5MMFJ,13,4,5,1.0,0,0,0,3,5,1.0,asocial
01JTS6Z36TH1E3M89RSZA5MMFJ,13,5,5,1.0,9,0,24,4,5,1.0,asocial
01JTS6Z36TH1E3M89RSZA5MMFJ,13,6,5,1.0,0,0,2,1,5,1.0,asocial
01JTS6Z36TH1E3M89RSZA5MMFJ,13,7,5,1.0,0,0,2,1,5,1.0,asocial
01JTS6Z36TH1E3M89RSZA5MMFJ,13,8,5,1.0,1,0,2,0,5,1.0,asocial
01JTS6Z36TH1E3M89RSZA5MMFJ,13,9,5,1.0,0,0,1,0,5,1.0,asocial
01JTS6Z36TH1E3M89RSZA5MMFJ,14,0,5,1.0,1,0,65,10,5,1.0,asocial
01JTS6Z36TH1E3M89RSZA5MMFJ,14,1,5,1.0,0,0,2,1,5,1.0,asocial
01JTS6Z36TH1E3M89RSZA5MMFJ,14,2,5,1.0,0,0,2,1,5,1.0,asocial
01JTS6Z36TH1E3M89RSZA5MMFJ,14,3,5,1.0,0,0,3,1,5,1.0,asocial
01JTS6Z36TH1E3M89RSZA5MMFJ,14,4,5,1.0,0,0,0,3,5,1.0,asocial
01JTS6Z36TH1E3M89RSZA5MMFJ,14,5,5,1.0,10,0,27,4,5,1.0,asocial
01JTS6Z36TH1E3M89RSZA5MMFJ,14,6,5,1.0,0,0,2,1,5,1.0,asocial
01JTS6Z36TH1E3M89RSZA5MMFJ,14,7,5,1.0,0,0,2,1,5,1.0,asocial
01JTS6Z36TH1E3M89RSZA5MMFJ,14,8,5,1.0,1,0,2,0,5,1.0,asocial
01JTS6Z36TH1E3M89RSZA5MMFJ,14,9,5,1.0,0,0,1,0,5,1.0,asocial
01JTS6Z36TH1E3M89RSZA5MMFJ,15,0,5,1.0,1,0,73,10,5,1.0,asocial
01JTS6Z36TH1E3M89RSZA5MMFJ,15,1,5,1.0,0,0,2,1,5,1.0,asocial
01JTS6Z36TH1E3M89RSZA5MMFJ,15,2,5,1.0,0,0,2,1,5,1.0,asocial
01JTS6Z36TH1E3M89RSZA5MMFJ,15,3,5,1.0,0,0,3,1,5,1.0,asocial
01JTS6Z36TH1E3M89RSZA5MMFJ,15,4,5,1.0,0,0,0,3,5,1.0,asocial
01JTS6Z36TH1E3M89RSZA5MMFJ,15,5,5,1.0,11,0,29,4,5,1.0,asocial
01JTS6Z36TH1E3M89RSZA5MMFJ,15,6,5,1.0,0,0,2,1,5,1.0,asocial
01JTS6Z36TH1E3M89RSZA5MMFJ,15,7,5,1.0,0,0,2,1,5,1.0,asocial
01JTS6Z36TH1E3M89RSZA5MMFJ,15,8,5,1.0,1,0,2,0,5,1.0,asocial
01JTS6Z36TH1E3M89RSZA5MMFJ,15,9,5,1.0,0,0,1,0,5,1.0,asocial
01JTS6Z36TH1E3M89RSZA5MMFJ,16,0,5,1.0,1,0,81,10,5,1.0,asocial
01JTS6Z36TH1E3M89RSZA5MMFJ,16,1,5,1.0,0,0,2,2,5,1.0,asocial
01JTS6Z36TH1E3M89RSZA5MMFJ,16,2,5,1.0,0,0,2,1,5,1.0,asocial
01JTS6Z36TH1E3M89RSZA5MMFJ,16,3,5,1.0,0,0,3,1,5,1.0,asocial
01JTS6Z36TH1E3M89RSZA5MMFJ,16,4,5,1.0,0,0,0,3,5,1.0,asocial
01JTS6Z36TH1E3M89RSZA5MMFJ,16,5,5,1.0,12,0,30,4,5,1.0,asocial
01JTS6Z36TH1E3M89RSZA5MMFJ,16,6,5,1.0,0,0,2,1,5,1.0,asocial
01JTS6Z36TH1E3M89RSZA5MMFJ,16,7,5,1.0,0,0,2,1,5,1.0,asocial
01JTS6Z36TH1E3M89RSZA5MMFJ,16,8,5,1.0,1,0,2,0,5,1.0,asocial
01JTS6Z36TH1E3M89RSZA5MMFJ,16,9,5,1.0,0,0,1,0,5,1.0,asocial
01JTS6Z36TH1E3M89RSZA5MMFJ,17,0,5,1.0,1,0,89,11,5,1.0,asocial
01JTS6Z36TH1E3M89RSZA5MMFJ,17,1,5,1.0,0,0,2,2,5,1.0,asocial
01JTS6Z36TH1E3M89RSZA5MMFJ,17,2,5,1.0,0,0,2,1,5,1.0,asocial
01JTS6Z36TH1E3M89RSZA5MMFJ,17,3,5,1.0,0,0,3,1,5,1.0,asocial
01JTS6Z36TH1E3M89RSZA5MMFJ,17,4,5,1.0,0,0,0,3,5,1.0,asocial
01JTS6Z36TH1E3M89RSZA5MMFJ,17,5,5,1.0,13,0,31,4,5,1.0,asocial
01JTS6Z36TH1E3M89RSZA5MMFJ,17,6,5,1.0,0,0,2,1,5,1.0,asocial
01JTS6Z36TH1E3M89RSZA5MMFJ,17,7,5,1.0,0,0,2,1,5,1.0,asocial
01JTS6Z36TH1E3M89RSZA5MMFJ,17,8,5,1.0,1,0,2,0,5,1.0,asocial
01JTS6Z36TH1E3M89RSZA5MMFJ,17,9,5,1.0,0,0,1,0,5,1.0,asocial
01JTS6Z36TH1E3M89RSZA5MMFJ,18,0,5,1.0,1,0,97,12,5,1.0,asocial
01JTS6Z36TH1E3M89RSZA5MMFJ,18,1,5,1.0,0,0,2,2,5,1.0,asocial
01JTS6Z36TH1E3M89RSZA5MMFJ,18,2,5,1.0,0,0,2,1,5,1.0,asocial
01JTS6Z36TH1E3M89RSZA5MMFJ,18,3,5,1.0,0,0,3,1,5,1.0,asocial
01JTS6Z36TH1E3M89RSZA5MMFJ,18,4,5,1.0,0,0,0,3,5,1.0,asocial
01JTS6Z36TH1E3M89RSZA5MMFJ,18,5,5,1.0,14,0,32,4,5,1.0,asocial
01JTS6Z36TH1E3M89RSZA5MMFJ,18,6,5,1.0,0,0,2,1,5,1.0,asocial
01JTS6Z36TH1E3M89RSZA5MMFJ,18,7,5,1.0,0,0,2,1,5,1.0,asocial
01JTS6Z36TH1E3M89RSZA5MMFJ,18,8,5,1.0,1,0,2,0,5,1.0,asocial
01JTS6Z36TH1E3M89RSZA5MMFJ,18,9,5,1.0,0,0,1,0,5,1.0,asocial
01JTS6Z36TH1E3M89RSZA5MMFJ,19,0,5,0.0,1,0,104,13,5,1.0,asocial
01JTS6Z36TH1E3M89RSZA5MMFJ,19,1,5,0.0,0,0,2,2,5,1.0,asocial
01JTS6Z36TH1E3M89RSZA5MMFJ,19,2,5,0.0,0,0,2,1,5,1.0,asocial
01JTS6Z36TH1E3M89RSZA5MMFJ,19,3,5,0.0,0,0,3,1,5,1.0,asocial
01JTS6Z36TH1E3M89RSZA5MMFJ,19,4,5,0.0,0,0,0,3,5,1.0,asocial
01JTS6Z36TH1E3M89RSZA5MMFJ,19,5,5,0.0,15,0,34,4,5,1.0,asocial
01JTS6Z36TH1E3M89RSZA5MMFJ,19,6,5,0.0,0,0,2,1,5,1.0,asocial
01JTS6Z36TH1E3M89RSZA5MMFJ,19,7,5,0.0,0,0,2,1,5,1.0,asocial
01JTS6Z36TH1E3M89RSZA5MMFJ,19,8,5,0.0,1,0,2,0,5,1.0,asocial
01JTS6Z36TH1E3M89RSZA5MMFJ,19,9,5,0.0,0,0,1,0,5,1.0,asocial
01JTS6Z36TH1E3M89RSZA5MMFJ,20,0,5,1.0,1,0,111,14,5,0.0,asocial
01JTS6Z36TH1E3M89RSZA5MMFJ,20,1,5,1.0,0,0,2,2,5,0.0,asocial
01JTS6Z36TH1E3M89RSZA5MMFJ,20,2,5,1.0,0,0,2,1,5,0.0,asocial
01JTS6Z36TH1E3M89RSZA5MMFJ,20,3,5,1.0,0,0,3,1,5,0.0,asocial
01JTS6Z36TH1E3M89RSZA5MMFJ,20,4,5,1.0,0,0,0,3,5,0.0,asocial
01JTS6Z36TH1E3M89RSZA5MMFJ,20,5,5,1.0,15,1,35,5,5,0.0,asocial
01JTS6Z36TH1E3M89RSZA5MMFJ,20,6,5,1.0,0,0,2,1,5,0.0,asocial
01JTS6Z36TH1E3M89RSZA5MMFJ,20,7,5,1.0,0,0,2,1,5,0.0,asocial
01JTS6Z36TH1E3M89RSZA5MMFJ,20,8,5,1.0,1,0,2,0,5,0.0,asocial
01JTS6Z36TH1E3M89RSZA5MMFJ,20,9,5,1.0,0,0,1,0,5,0.0,asocial
01JTS6Z36TH1E3M89RSZA5MMFJ,21,0,0,1.0,1,0,118,15,5,1.0,asocial
01JTS6Z36TH1E3M89RSZA5MMFJ,21,1,0,1.0,0,0,2,2,5,1.0,asocial
01JTS6Z36TH1E3M89RSZA5MMFJ,21,2,0,1.0,0,0,2,1,5,1.0,asocial
01JTS6Z36TH1E3M89RSZA5MMFJ,21,3,0,1.0,0,0,3,1,5,1.0,asocial
01JTS6Z36TH1E3M89RSZA5MMFJ,21,4,0,1.0,0,0,0,3,5,1.0,asocial
01JTS6Z36TH1E3M89RSZA5MMFJ,21,5,0,1.0,16,1,36,6,5,1.0,asocial
01JTS6Z36TH1E3M89RSZA5MMFJ,21,6,0,1.0,0,0,2,1,5,1.0,asocial
01JTS6Z36TH1E3M89RSZA5MMFJ,21,7,0,1.0,0,0,2,1,5,1.0,asocial
01JTS6Z36TH1E3M89RSZA5MMFJ,21,8,0,1.0,1,0,2,0,5,1.0,asocial
01JTS6Z36TH1E3M89RSZA5MMFJ,21,9,0,1.0,0,0,1,0,5,1.0,asocial
01JTS6Z36TH1E3M89RSZA5MMFJ,22,0,0,1.0,2,0,126,15,0,1.0,asocial
01JTS6Z36TH1E3M89RSZA5MMFJ,22,1,0,1.0,0,0,2,2,0,1.0,asocial
01JTS6Z36TH1E3M89RSZA5MMFJ,22,2,0,1.0,0,0,2,1,0,1.0,asocial
01JTS6Z36TH1E3M89RSZA5MMFJ,22,3,0,1.0,0,0,3,1,0,1.0,asocial
01JTS6Z36TH1E3M89RSZA5MMFJ,22,4,0,1.0,0,0,0,3,0,1.0,asocial
01JTS6Z36TH1E3M89RSZA5MMFJ,22,5,0,1.0,16,1,37,7,0,1.0,asocial
01JTS6Z36TH1E3M89RSZA5MMFJ,22,6,0,1.0,0,0,2,1,0,1.0,asocial
01JTS6Z36TH1E3M89RSZA5MMFJ,22,7,0,1.0,0,0,2,1,0,1.0,asocial
01JTS6Z36TH1E3M89RSZA5MMFJ,22,8,0,1.0,1,0,2,0,0,1.0,asocial
01JTS6Z36TH1E3M89RSZA5MMFJ,22,9,0,1.0,0,0,1,0,0,1.0,asocial
01JTS6Z36TH1E3M89RSZA5MMFJ,23,0,0,1.0,3,0,135,15,0,1.0,asocial
01JTS6Z36TH1E3M89RSZA5MMFJ,23,1,0,1.0,0,0,2,2,0,1.0,asocial
01JTS6Z36TH1E3M89RSZA5MMFJ,23,2,0,1.0,0,0,2,1,0,1.0,asocial
01JTS6Z36TH1E3M89RSZA5MMFJ,23,3,0,1.0,0,0,3,1,0,1.0,asocial
01JTS6Z36TH1E3M89RSZA5MMFJ,23,4,0,1.0,0,0,0,3,0,1.0,asocial
01JTS6Z36TH1E3M89RSZA5MMFJ,23,5,0,1.0,16,1,38,7,0,1.0,asocial
01JTS6Z36TH1E3M89RSZA5MMFJ,23,6,0,1.0,0,0,2,1,0,1.0,asocial
01JTS6Z36TH1E3M89RSZA5MMFJ,23,7,0,1.0,0,0,2,1,0,1.0,asocial
01JTS6Z36TH1E3M89RSZA5MMFJ,23,8,0,1.0,1,0,2,0,0,1.0,asocial
01JTS6Z36TH1E3M89RSZA5MMFJ,23,9,0,1.0,0,0,1,0,0,1.0,asocial
01JTS6Z36TH1E3M89RSZA5MMFJ,24,0,0,1.0,4,0,143,16,0,1.0,asocial
01JTS6Z36TH1E3M89RSZA5MMFJ,24,1,0,1.0,0,0,2,2,0,1.0,asocial
01JTS6Z36TH1E3M89RSZA5MMFJ,24,2,0,1.0,0,0,2,1,0,1.0,asocial
01JTS6Z36TH1E3M89RSZA5MMFJ,24,3,0,1.0,0,0,3,1,0,1.0,asocial
01JTS6Z36TH1E3M89RSZA5MMFJ,24,4,0,1.0,0,0,0,3,0,1.0,asocial
01JTS6Z36TH1E3M89RSZA5MMFJ,24,5,0,1.0,16,1,39,7,0,1.0,asocial
01JTS6Z36TH1E3M89RSZA5MMFJ,24,6,0,1.0,0,0,2,1,0,1.0,asocial
01JTS6Z36TH1E3M89RSZA5MMFJ,24,7,0,1.0,0,0,2,1,0,1.0,asocial
01JTS6Z36TH1E3M89RSZA5MMFJ,24,8,0,1.0,1,0,2,0,0,1.0,asocial
01JTS6Z36TH1E3M89RSZA5MMFJ,24,9,0,1.0,0,0,1,0,0,1.0,asocial
01JTS6Z36TH1E3M89RSZA5MMFJ,25,0,0,1.0,5,0,151,17,0,1.0,asocial
01JTS6Z36TH1E3M89RSZA5MMFJ,25,1,0,1.0,0,0,2,2,0,1.0,asocial
01JTS6Z36TH1E3M89RSZA5MMFJ,25,2,0,1.0,0,0,2,1,0,1.0,asocial
01JTS6Z36TH1E3M89RSZA5MMFJ,25,3,0,1.0,0,0,3,1,0,1.0,asocial
01JTS6Z36TH1E3M89RSZA5MMFJ,25,4,0,1.0,0,0,0,3,0,1.0,asocial
01JTS6Z36TH1E3M89RSZA5MMFJ,25,5,0,1.0,16,1,40,7,0,1.0,asocial
01JTS6Z36TH1E3M89RSZA5MMFJ,25,6,0,1.0,0,0,2,1,0,1.0,asocial
01JTS6Z36TH1E3M89RSZA5MMFJ,25,7,0,1.0,0,0,2,1,0,1.0,asocial
01JTS6Z36TH1E3M89RSZA5MMFJ,25,8,0,1.0,1,0,2,0,0,1.0,asocial
01JTS6Z36TH1E3M89RSZA5MMFJ,25,9,0,1.0,0,0,1,0,0,1.0,asocial
01JTS6Z36TH1E3M89RSZA5MMFJ,26,0,0,0.0,6,0,160,17,0,1.0,asocial
01JTS6Z36TH1E3M89RSZA5MMFJ,26,1,0,0.0,0,0,2,2,0,1.0,asocial
01JTS6Z36TH1E3M89RSZA5MMFJ,26,2,0,0.0,0,0,2,1,0,1.0,asocial
01JTS6Z36TH1E3M89RSZA5MMFJ,26,3,0,0.0,0,0,3,1,0,1.0,asocial
01JTS6Z36TH1E3M89RSZA5MMFJ,26,4,0,0.0,0,0,0,3,0,1.0,asocial
01JTS6Z36TH1E3M89RSZA5MMFJ,26,5,0,0.0,16,1,41,7,0,1.0,asocial
01JTS6Z36TH1E3M89RSZA5MMFJ,26,6,0,0.0,0,0,2,1,0,1.0,asocial
01JTS6Z36TH1E3M89RSZA5MMFJ,26,7,0,0.0,0,0,2,1,0,1.0,asocial
01JTS6Z36TH1E3M89RSZA5MMFJ,26,8,0,0.0,1,0,2,0,0,1.0,asocial
01JTS6Z36TH1E3M89RSZA5MMFJ,26,9,0,0.0,0,0,1,0,0,1.0,asocial
01JTS6Z36TH1E3M89RSZA5MMFJ,27,0,0,1.0,6,1,168,18,0,0.0,asocial
01JTS6Z36TH1E3M89RSZA5MMFJ,27,1,0,1.0,0,0,2,2,0,0.0,asocial
01JTS6Z36TH1E3M89RSZA5MMFJ,27,2,0,1.0,0,0,2,1,0,0.0,asocial
01JTS6Z36TH1E3M89RSZA5MMFJ,27,3,0,1.0,0,0,3,1,0,0.0,asocial
01JTS6Z36TH1E3M89RSZA5MMFJ,27,4,0,1.0,0,0,0,3,0,0.0,asocial
01JTS6Z36TH1E3M89RSZA5MMFJ,27,5,0,1.0,16,1,41,7,0,0.0,asocial
01JTS6Z36TH1E3M89RSZA5MMFJ,27,6,0,1.0,0,0,2,1,0,0.0,asocial
01JTS6Z36TH1E3M89RSZA5MMFJ,27,7,0,1.0,0,0,2,1,0,0.0,asocial
01JTS6Z36TH1E3M89RSZA5MMFJ,27,8,0,1.0,1,0,3,0,0,0.0,asocial
01JTS6Z36TH1E3M89RSZA5MMFJ,27,9,0,1.0,0,0,1,0,0,0.0,asocial
01JTS6Z36TH1E3M89RSZA5MMFJ,28,0,0,1.0,7,1,176,19,0,1.0,asocial
01JTS6Z36TH1E3M89RSZA5MMFJ,28,1,0,1.0,0,0,2,2,0,1.0,asocial
01JTS6Z36TH1E3M89RSZA5MMFJ,28,2,0,1.0,0,0,2,1,0,1.0,asocial
01JTS6Z36TH1E3M89RSZA5MMFJ,28,3,0,1.0,0,0,3,1,0,1.0,asocial
01JTS6Z36TH1E3M89RSZA5MMFJ,28,4,0,1.0,0,0,0,3,0,1.0,asocial
01JTS6Z36TH1E3M89RSZA5MMFJ,28,5,0,1.0,16,1,41,7,0,1.0,asocial
01JTS6Z36TH1E3M89RSZA5MMFJ,28,6,0,1.0,0,0,2,1,0,1.0,asocial
01JTS6Z36TH1E3M89RSZA5MMFJ,28,7,0,1.0,0,0,2,1,0,1.0,asocial
01JTS6Z36TH1E3M89RSZA5MMFJ,28,8,0,1.0,1,0,4,0,0,1.0,asocial
01JTS6Z36TH1E3M89RSZA5MMFJ,28,9,0,1.0,0,0,1,0,0,1.0,asocial
01JTS6Z36TH1E3M89RSZA5MMFJ,29,0,0,1.0,8,1,184,19,0,1.0,asocial
01JTS6Z36TH1E3M89RSZA5MMFJ,29,1,0,1.0,0,0,2,2,0,1.0,asocial
01JTS6Z36TH1E3M89RSZA5MMFJ,29,2,0,1.0,0,0,2,1,0,1.0,asocial
01JTS6Z36TH1E3M89RSZA5MMFJ,29,3,0,1.0,0,0,3,1,0,1.0,asocial
01JTS6Z36TH1E3M89RSZA5MMFJ,29,4,0,1.0,0,0,0,3,0,1.0,asocial
01JTS6Z36TH1E3M89RSZA5MMFJ,29,5,0,1.0,16,1,41,7,0,1.0,asocial
01JTS6Z36TH1E3M89RSZA5MMFJ,29,6,0,1.0,0,0,2,1,0,1.0,asocial
01JTS6Z36TH1E3M89RSZA5MMFJ,29,7,0,1.0,0,0,2,1,0,1.0,asocial
01JTS6Z36TH1E3M89RSZA5MMFJ,29,8,0,1.0,1,0,5,0,0,1.0,asocial
01JTS6Z36TH1E3M89RSZA5MMFJ,29,9,0,1.0,0,0,1,0,0,1.0,asocial
01JTS6Z36TH1E3M89RSZA5MMFJ,30,0,0,1.0,9,1,193,19,0,1.0,asocial
01JTS6Z36TH1E3M89RSZA5MMFJ,30,1,0,1.0,0,0,2,2,0,1.0,asocial
01JTS6Z36TH1E3M89RSZA5MMFJ,30,2,0,1.0,0,0,2,1,0,1.0,asocial
01JTS6Z36TH1E3M89RSZA5MMFJ,30,3,0,1.0,0,0,3,1,0,1.0,asocial
01JTS6Z36TH1E3M89RSZA5MMFJ,30,4,0,1.0,0,0,0,3,0,1.0,asocial
01JTS6Z36TH1E3M89RSZA5MMFJ,30,5,0,1.0,16,1,41,7,0,1.0,asocial
01JTS6Z36TH1E3M89RSZA5MMFJ,30,6,0,1.0,0,0,2,1,0,1.0,asocial
01JTS6Z36TH1E3M89RSZA5MMFJ,30,7,0,1.0,0,0,2,1,0,1.0,asocial
01JTS6Z36TH1E3M89RSZA5MMFJ,30,8,0,1.0,1,0,6,0,0,1.0,asocial
01JTS6Z36TH1E3M89RSZA5MMFJ,30,9,0,1.0,0,0,1,0,0,1.0,asocial
01JTS6Z36TH1E3M89RSZA5MMFJ,31,0,0,1.0,10,1,201,20,0,1.0,asocial
01JTS6Z36TH1E3M89RSZA5MMFJ,31,1,0,1.0,0,0,2,2,0,1.0,asocial
01JTS6Z36TH1E3M89RSZA5MMFJ,31,2,0,1.0,0,0,2,1,0,1.0,asocial
01JTS6Z36TH1E3M89RSZA5MMFJ,31,3,0,1.0,0,0,3,1,0,1.0,asocial
01JTS6Z36TH1E3M89RSZA5MMFJ,31,4,0,1.0,0,0,0,3,0,1.0,asocial
01JTS6Z36TH1E3M89RSZA5MMFJ,31,5,0,1.0,16,1,41,7,0,1.0,asocial
01JTS6Z36TH1E3M89RSZA5MMFJ,31,6,0,1.0,0,0,2,1,0,1.0,asocial
01JTS6Z36TH1E3M89RSZA5MMFJ,31,7,0,1.0,0,0,2,1,0,1.0,asocial
01JTS6Z36TH1E3M89RSZA5MMFJ,31,8,0,1.0,1,0,6,1,0,1.0,asocial
01JTS6Z36TH1E3M89RSZA5MMFJ,31,9,0,1.0,0,0,1,0,0,1.0,asocial
01JTS6Z36TH1E3M89RSZA5MMFJ,32,0,0,1.0,11,1,209,21,0,1.0,asocial
01JTS6Z36TH1E3M89RSZA5MMFJ,32,1,0,1.0,0,0,2,2,0,1.0,asocial
01JTS6Z36TH1E3M89RSZA5MMFJ,32,2,0,1.0,0,0,2,1,0,1.0,asocial
01JTS6Z36TH1E3M89RSZA5MMFJ,32,3,0,1.0,0,0,3,1,0,1.0,asocial
01JTS6Z36TH1E3M89RSZA5MMFJ,32,4,0,1.0,0,0,0,3,0,1.0,asocial
01JTS6Z36TH1E3M89RSZA5MMFJ,32,5,0,1.0,16,1,42,7,0,1.0,asocial
01JTS6Z36TH1E3M89RSZA5MMFJ,32,6,0,1.0,0,0,2,1,0,1.0,asocial
01JTS6Z36TH1E3M89RSZA5MMFJ,32,7,0,1.0,0,0,2,1,0,1.0,asocial
01JTS6Z36TH1E3M89RSZA5MMFJ,32,8,0,1.0,1,0,6,1,0,1.0,asocial
01JTS6Z36TH1E3M89RSZA5MMFJ,32,9,0,1.0,0,0,1,0,0,1.0,asocial
01JTS6Z36TH1E3M89RSZA5MMFJ,33,0,5,1.0,12,1,218,21,0,1.0,asocial
01JTS6Z36TH1E3M89RSZA5MMFJ,33,1,5,1.0,0,0,2,2,0,1.0,asocial
01JTS6Z36TH1E3M89RSZA5MMFJ,33,2,5,1.0,0,0,2,1,0,1.0,asocial
01JTS6Z36TH1E3M89RSZA5MMFJ,33,3,5,1.0,0,0,3,1,0,1.0,asocial
01JTS6Z36TH1E3M89RSZA5MMFJ,33,4,5,1.0,0,0,0,3,0,1.0,asocial
01JTS6Z36TH1E3M89RSZA5MMFJ,33,5,5,1.0,16,1,43,7,0,1.0,asocial
01JTS6Z36TH1E3M89RSZA5MMFJ,33,6,5,1.0,0,0,2,1,0,1.0,asocial
01JTS6Z36TH1E3M89RSZA5MMFJ,33,7,5,1.0,0,0,2,1,0,1.0,asocial
01JTS6Z36TH1E3M89RSZA5MMFJ,33,8,5,1.0,1,0,6,1,0,1.0,asocial
01JTS6Z36TH1E3M89RSZA5MMFJ,33,9,5,1.0,0,0,1,0,0,1.0,asocial
01JTS6Z36TH1E3M89RSZA5MMFJ,34,0,0,1.0,12,1,226,21,5,1.0,asocial
01JTS6Z36TH1E3M89RSZA5MMFJ,34,1,0,1.0,0,0,2,2,5,1.0,asocial
01JTS6Z36TH1E3M89RSZA5MMFJ,34,2,0,1.0,0,0,2,1,5,1.0,asocial
01JTS6Z36TH1E3M89RSZA5MMFJ,34,3,0,1.0,0,0,3,1,5,1.0,asocial
01JTS6Z36TH1E3M89RSZA5MMFJ,34,4,0,1.0,0,0,0,3,5,1.0,asocial
01JTS6Z36TH1E3M89RSZA5MMFJ,34,5,0,1.0,17,1,45,7,5,1.0,asocial
01JTS6Z36TH1E3M89RSZA5MMFJ,34,6,0,1.0,0,0,2,1,5,1.0,asocial
01JTS6Z36TH1E3M89RSZA5MMFJ,34,7,0,1.0,0,0,2,1,5,1.0,asocial
01JTS6Z36TH1E3M89RSZA5MMFJ,34,8,0,1.0,1,0,6,1,5,1.0,asocial
01JTS6Z36TH1E3M89RSZA5MMFJ,34,9,0,1.0,0,0,1,0,5,1.0,asocial
01JTS6Z36TH1E3M89RSZA5MMFJ,35,0,0,1.0,13,1,236,21,0,1.0,asocial
01JTS6Z36TH1E3M89RSZA5MMFJ,35,1,0,1.0,0,0,2,2,0,1.0,asocial
01JTS6Z36TH1E3M89RSZA5MMFJ,35,2,0,1.0,0,0,2,1,0,1.0,asocial
01JTS6Z36TH1E3M89RSZA5MMFJ,35,3,0,1.0,0,0,3,1,0,1.0,asocial
01JTS6Z36TH1E3M89RSZA5MMFJ,35,4,0,1.0,0,0,0,3,0,1.0,asocial
01JTS6Z36TH1E3M89RSZA5MMFJ,35,5,0,1.0,17,1,45,7,0,1.0,asocial
01JTS6Z36TH1E3M89RSZA5MMFJ,35,6,0,1.0,0,0,2,1,0,1.0,asocial
01JTS6Z36TH1E3M89RSZA5MMFJ,35,7,0,1.0,0,0,2,1,0,1.0,asocial
01JTS6Z36TH1E3M89RSZA5MMFJ,35,8,0,1.0,1,0,6,1,0,1.0,asocial
01JTS6Z36TH1E3M89RSZA5MMFJ,35,9,0,1.0,0,0,1,0,0,1.0,asocial
01JTS6Z36TH1E3M89RSZA5MMFJ,36,0,0,1.0,14,1,243,22,0,1.0,asocial
01JTS6Z36TH1E3M89RSZA5MMFJ,36,1,0,1.0,0,0,2,2,0,1.0,asocial
01JTS6Z36TH1E3M89RSZA5MMFJ,36,2,0,1.0,0,0,2,1,0,1.0,asocial
01JTS6Z36TH1E3M89RSZA5MMFJ,36,3,0,1.0,0,0,3,1,0,1.0,asocial
01JTS6Z36TH1E3M89RSZA5MMFJ,36,4,0,1.0,0,0,0,3,0,1.0,asocial
01JTS6Z36TH1E3M89RSZA5MMFJ,36,5,0,1.0,17,1,46,7,0,1.0,asocial
01JTS6Z36TH1E3M89RSZA5MMFJ,36,6,0,1.0,0,0,2,1,0,1.0,asocial
01JTS6Z36TH1E3M89RSZA5MMFJ,36,7,0,1.0,0,0,2,1,0,1.0,asocial
01JTS6Z36TH1E3M89RSZA5MMFJ,36,8,0,1.0,1,0,6,1,0,1.0,asocial
01JTS6Z36TH1E3M89RSZA5MMFJ,36,9,0,1.0,0,0,1,0,0,1.0,asocial
01JTS6Z36TH1E3M89RSZA5MMFJ,37,0,0,1.0,15,1,250,23,0,1.0,asocial
01JTS6Z36TH1E3M89RSZA5MMFJ,37,1,0,1.0,0,0,2,2,0,1.0,asocial
01JTS6Z36TH1E3M89RSZA5MMFJ,37,2,0,1.0,0,0,2,1,0,1.0,asocial
01JTS6Z36TH1E3M89RSZA5MMFJ,37,3,0,1.0,0,0,3,1,0,1.0,asocial
01JTS6Z36TH1E3M89RSZA5MMFJ,37,4,0,1.0,0,0,0,3,0,1.0,asocial
01JTS6Z36TH1E3M89RSZA5MMFJ,37,5,0,1.0,17,1,46,7,0,1.0,asocial
01JTS6Z36TH1E3M89RSZA5MMFJ,37,6,0,1.0,0,0,2,1,0,1.0,asocial
01JTS6Z36TH1E3M89RSZA5MMFJ,37,7,0,1.0,0,0,2,1,0,1.0,asocial
01JTS6Z36TH1E3M89RSZA5MMFJ,37,8,0,1.0,1,0,7,1,0,1.0,asocial
01JTS6Z36TH1E3M89RSZA5MMFJ,37,9,0,1.0,0,0,1,0,0,1.0,asocial
01JTS6Z36TH1E3M89RSZA5MMFJ,38,0,0,1.0,16,1,257,24,0,1.0,asocial
01JTS6Z36TH1E3M89RSZA5MMFJ,38,1,0,1.0,0,0,2,2,0,1.0,asocial
01JTS6Z36TH1E3M89RSZA5MMFJ,38,2,0,1.0,0,0,2,1,0,1.0,asocial
01JTS6Z36TH1E3M89RSZA5MMFJ,38,3,0,1.0,0,0,3,1,0,1.0,asocial
01JTS6Z36TH1E3M89RSZA5MMFJ,38,4,0,1.0,0,0,0,3,0,1.0,asocial
01JTS6Z36TH1E3M89RSZA5MMFJ,38,5,0,1.0,17,1,47,7,0,1.0,asocial
01JTS6Z36TH1E3M89RSZA5MMFJ,38,6,0,1.0,0,0,2,1,0,1.0,asocial
01JTS6Z36TH1E3M89RSZA5MMFJ,38,7,0,1.0,0,0,2,1,0,1.0,asocial
01JTS6Z36TH1E3M89RSZA5MMFJ,38,8,0,1.0,1,0,8,1,0,1.0,asocial
01JTS6Z36TH1E3M89RSZA5MMFJ,38,9,0,1.0,0,0,1,0,0,1.0,asocial
01JTS6Z36TH1E3M89RSZA5MMFJ,39,0,0,1.0,17,1,265,25,0,1.0,asocial
01JTS6Z36TH1E3M89RSZA5MMFJ,39,1,0,1.0,0,0,2,2,0,1.0,asocial
01JTS6Z36TH1E3M89RSZA5MMFJ,39,2,0,1.0,0,0,2,1,0,1.0,asocial
01JTS6Z36TH1E3M89RSZA5MMFJ,39,3,0,1.0,0,0,3,1,0,1.0,asocial
01JTS6Z36TH1E3M89RSZA5MMFJ,39,4,0,1.0,0,0,0,3,0,1.0,asocial
01JTS6Z36TH1E3M89RSZA5MMFJ,39,5,0,1.0,17,1,47,7,0,1.0,asocial
01JTS6Z36TH1E3M89RSZA5MMFJ,39,6,0,1.0,0,0,2,1,0,1.0,asocial
01JTS6Z36TH1E3M89RSZA5MMFJ,39,7,0,1.0,0,0,2,1,0,1.0,asocial
01JTS6Z36TH1E3M89RSZA5MMFJ,39,8,0,1.0,1,0,9,1,0,1.0,asocial
01JTS6Z36TH1E3M89RSZA5MMFJ,39,9,0,1.0,0,0,1,0,0,1.0,asocial
01JTS6Z36TH1E3M89RSZA5MMFJ,40,0,0,1.0,18,1,274,25,0,1.0,asocial
01JTS6Z36TH1E3M89RSZA5MMFJ,40,1,0,1.0,0,0,2,2,0,1.0,asocial
01JTS6Z36TH1E3M89RSZA5MMFJ,40,2,0,1.0,0,0,2,1,0,1.0,asocial
01JTS6Z36TH1E3M89RSZA5MMFJ,40,3,0,1.0,0,0,3,1,0,1.0,asocial
01JTS6Z36TH1E3M89RSZA5MMFJ,40,4,0,1.0,0,0,0,3,0,1.0,asocial
01JTS6Z36TH1E3M89RSZA5MMFJ,40,5,0,1.0,17,1,47,7,0,1.0,asocial
01JTS6Z36TH1E3M89RSZA5MMFJ,40,6,0,1.0,0,0,2,1,0,1.0,asocial
01JTS6Z36TH1E3M89RSZA5MMFJ,40,7,0,1.0,0,0,2,1,0,1.0,asocial
01JTS6Z36TH1E3M89RSZA5MMFJ,40,8,0,1.0,1,0,10,1,0,1.0,asocial
01JTS6Z36TH1E3M89RSZA5MMFJ,40,9,0,1.0,0,0,1,0,0,1.0,asocial
01JTS6Z36TH1E3M89RSZA5MMFJ,41,0,0,1.0,19,1,282,26,0,1.0,asocial
01JTS6Z36TH1E3M89RSZA5MMFJ,41,1,0,1.0,0,0,2,2,0,1.0,asocial
01JTS6Z36TH1E3M89RSZA5MMFJ,41,2,0,1.0,0,0,2,1,0,1.0,asocial
01JTS6Z36TH1E3M89RSZA5MMFJ,41,3,0,1.0,0,0,3,1,0,1.0,asocial
01JTS6Z36TH1E3M89RSZA5MMFJ,41,4,0,1.0,0,0,0,3,0,1.0,asocial
01JTS6Z36TH1E3M89RSZA5MMFJ,41,5,0,1.0,17,1,48,7,0,1.0,asocial
01JTS6Z36TH1E3M89RSZA5MMFJ,41,6,0,1.0,0,0,2,1,0,1.0,asocial
01JTS6Z36TH1E3M89RSZA5MMFJ,41,7,0,1.0,0,0,2,1,0,1.0,asocial
01JTS6Z36TH1E3M89RSZA5MMFJ,41,8,0,1.0,1,0,10,1,0,1.0,asocial
01JTS6Z36TH1E3M89RSZA5MMFJ,41,9,0,1.0,0,0,1,0,0,1.0,asocial
01JTS6Z36TH1E3M89RSZA5MMFJ,42,0,5,1.0,20,1,289,28,0,1.0,asocial
01JTS6Z36TH1E3M89RSZA5MMFJ,42,1,5,1.0,0,0,2,2,0,1.0,asocial
01JTS6Z36TH1E3M89RSZA5MMFJ,42,2,5,1.0,0,0,2,1,0,1.0,asocial
01JTS6Z36TH1E3M89RSZA5MMFJ,42,3,5,1.0,0,0,3,1,0,1.0,asocial
01JTS6Z36TH1E3M89RSZA5MMFJ,42,4,5,1.0,0,0,0,3,0,1.0,asocial
01JTS6Z36TH1E3M89RSZA5MMFJ,42,5,5,1.0,17,1,48,7,0,1.0,asocial
01JTS6Z36TH1E3M89RSZA5MMFJ,42,6,5,1.0,0,0,2,1,0,1.0,asocial
01JTS6Z36TH1E3M89RSZA5MMFJ,42,7,5,1.0,0,0,2,1,0,1.0,asocial
01JTS6Z36TH1E3M89RSZA5MMFJ,42,8,5,1.0,1,0,10,2,0,1.0,asocial
01JTS6Z36TH1E3M89RSZA5MMFJ,42,9,5,1.0,0,0,1,0,0,1.0,asocial
01JTS6Z36TH1E3M89RSZA5MMFJ,43,0,5,1.0,20,1,297,28,5,1.0,asocial
01JTS6Z36TH1E3M89RSZA5MMFJ,43,1,5,1.0,0,0,2,2,5,1.0,asocial
01JTS6Z36TH1E3M89RSZA5MMFJ,43,2,5,1.0,0,0,2,1,5,1.0,asocial
01JTS6Z36TH1E3M89RSZA5MMFJ,43,3,5,1.0,0,0,3,1,5,1.0,asocial
01JTS6Z36TH1E3M89RSZA5MMFJ,43,4,5,1.0,0,0,0,3,5,1.0,asocial
01JTS6Z36TH1E3M89RSZA5MMFJ,43,5,5,1.0,18,1,49,7,5,1.0,asocial
01JTS6Z36TH1E3M89RSZA5MMFJ,43,6,5,1.0,0,0,2,1,5,1.0,asocial
01JTS6Z36TH1E3M89RSZA5MMFJ,43,7,5,1.0,0,0,2,1,5,1.0,asocial
01JTS6Z36TH1E3M89RSZA5MMFJ,43,8,5,1.0,1,0,11,2,5,1.0,asocial
01JTS6Z36TH1E3M89RSZA5MMFJ,43,9,5,1.0,0,0,1,0,5,1.0,asocial
01JTS6Z36TH1E3M89RSZA5MMFJ,44,0,0,1.0,20,1,305,28,5,1.0,asocial
01JTS6Z36TH1E3M89RSZA5MMFJ,44,1,0,1.0,0,0,2,2,5,1.0,asocial
01JTS6Z36TH1E3M89RSZA5MMFJ,44,2,0,1.0,0,0,2,1,5,1.0,asocial
01JTS6Z36TH1E3M89RSZA5MMFJ,44,3,0,1.0,0,0,3,1,5,1.0,asocial
01JTS6Z36TH1E3M89RSZA5MMFJ,44,4,0,1.0,0,0,0,3,5,1.0,asocial
01JTS6Z36TH1E3M89RSZA5MMFJ,44,5,0,1.0,19,1,50,7,5,1.0,asocial
01JTS6Z36TH1E3M89RSZA5MMFJ,44,6,0,1.0,0,0,2,1,5,1.0,asocial
01JTS6Z36TH1E3M89RSZA5MMFJ,44,7,0,1.0,0,0,2,1,5,1.0,asocial
01JTS6Z36TH1E3M89RSZA5MMFJ,44,8,0,1.0,1,0,12,2,5,1.0,asocial
01JTS6Z36TH1E3M89RSZA5MMFJ,44,9,0,1.0,0,0,1,0,5,1.0,asocial
01JTS6Z36TH1E3M89RSZA5MMFJ,45,0,0,0.0,21,1,314,28,0,1.0,asocial
01JTS6Z36TH1E3M89RSZA5MMFJ,45,1,0,0.0,0,0,2,2,0,1.0,asocial
01JTS6Z36TH1E3M89RSZA5MMFJ,45,2,0,0.0,0,0,2,1,0,1.0,asocial
01JTS6Z36TH1E3M89RSZA5MMFJ,45,3,0,0.0,0,0,3,1,0,1.0,asocial
01JTS6Z36TH1E3M89RSZA5MMFJ,45,4,0,0.0,0,0,0,3,0,1.0,asocial
01JTS6Z36TH1E3M89RSZA5MMFJ,45,5,0,0.0,19,1,50,7,0,1.0,asocial
01JTS6Z36TH1E3M89RSZA5MMFJ,45,6,0,0.0,0,0,2,1,0,1.0,asocial
01JTS6Z36TH1E3M89RSZA5MMFJ,45,7,0,0.0,0,0,2,1,0,1.0,asocial
01JTS6Z36TH1E3M89RSZA5MMFJ,45,8,0,0.0,1,0,13,2,0,1.0,asocial
01JTS6Z36TH1E3M89RSZA5MMFJ,45,9,0,0.0,0,0,1,0,0,1.0,asocial
01JTS6Z36TH1E3M89RSZA5MMFJ,46,0,0,1.0,21,2,321,30,0,0.0,asocial
01JTS6Z36TH1E3M89RSZA5MMFJ,46,1,0,1.0,0,0,2,2,0,0.0,asocial
01JTS6Z36TH1E3M89RSZA5MMFJ,46,2,0,1.0,0,0,2,1,0,0.0,asocial
01JTS6Z36TH1E3M89RSZA5MMFJ,46,3,0,1.0,0,0,3,1,0,0.0,asocial
01JTS6Z36TH1E3M89RSZA5MMFJ,46,4,0,1.0,0,0,0,3,0,0.0,asocial
01JTS6Z36TH1E3M89RSZA5MMFJ,46,5,0,1.0,19,1,50,7,0,0.0,asocial
01JTS6Z36TH1E3M89RSZA5MMFJ,46,6,0,1.0,0,0,2,1,0,0.0,asocial
01JTS6Z36TH1E3M89RSZA5MMFJ,46,7,0,1.0,0,0,2,1,0,0.0,asocial
01JTS6Z36TH1E3M89RSZA5MMFJ,46,8,0,1.0,1,0,14,2,0,0.0,asocial
01JTS6Z36TH1E3M89RSZA5MMFJ,46,9,0,1.0,0,0,1,0,0,0.0,asocial
01JTS6Z36TH1E3M89RSZA5MMFJ,47,0,0,1.0,22,2,329,31,0,1.0,asocial
01JTS6Z36TH1E3M89RSZA5MMFJ,47,1,0,1.0,0,0,2,2,0,1.0,asocial
01JTS6Z36TH1E3M89RSZA5MMFJ,47,2,0,1.0,0,0,2,1,0,1.0,asocial
01JTS6Z36TH1E3M89RSZA5MMFJ,47,3,0,1.0,0,0,3,1,0,1.0,asocial
01JTS6Z36TH1E3M89RSZA5MMFJ,47,4,0,1.0,0,0,0,3,0,1.0,asocial
01JTS6Z36TH1E3M89RSZA5MMFJ,47,5,0,1.0,19,1,50,7,0,1.0,asocial
01JTS6Z36TH1E3M89RSZA5MMFJ,47,6,0,1.0,0,0,2,1,0,1.0,asocial
01JTS6Z36TH1E3M89RSZA5MMFJ,47,7,0,1.0,0,0,2,1,0,1.0,asocial
01JTS6Z36TH1E3M89RSZA5MMFJ,47,8,0,1.0,1,0,15,2,0,1.0,asocial
01JTS6Z36TH1E3M89RSZA5MMFJ,47,9,0,1.0,0,0,1,0,0,1.0,asocial
01JTS6Z36TH1E3M89RSZA5MMFJ,48,0,0,1.0,23,2,337,32,0,1.0,asocial
01JTS6Z36TH1E3M89RSZA5MMFJ,48,1,0,1.0,0,0,2,2,0,1.0,asocial
01JTS6Z36TH1E3M89RSZA5MMFJ,48,2,0,1.0,0,0,2,1,0,1.0,asocial
01JTS6Z36TH1E3M89RSZA5MMFJ,48,3,0,1.0,0,0,3,1,0,1.0,asocial
01JTS6Z36TH1E3M89RSZA5MMFJ,48,4,0,1.0,0,0,0,3,0,1.0,asocial
01JTS6Z36TH1E3M89RSZA5MMFJ,48,5,0,1.0,19,1,50,7,0,1.0,asocial
01JTS6Z36TH1E3M89RSZA5MMFJ,48,6,0,1.0,0,0,2,1,0,1.0,asocial
01JTS6Z36TH1E3M89RSZA5MMFJ,48,7,0,1.0,0,0,2,1,0,1.0,asocial
01JTS6Z36TH1E3M89RSZA5MMFJ,48,8,0,1.0,1,0,16,2,0,1.0,asocial
01JTS6Z36TH1E3M89RSZA5MMFJ,48,9,0,1.0,0,0,1,0,0,1.0,asocial
01JTS6Z36TH1E3M89RSZA5MMFJ,49,0,0,1.0,24,2,345,33,0,1.0,asocial
01JTS6Z36TH1E3M89RSZA5MMFJ,49,1,0,1.0,0,0,2,2,0,1.0,asocial
01JTS6Z36TH1E3M89RSZA5MMFJ,49,2,0,1.0,0,0,2,1,0,1.0,asocial
01JTS6Z36TH1E3M89RSZA5MMFJ,49,3,0,1.0,0,0,3,1,0,1.0,asocial
01JTS6Z36TH1E3M89RSZA5MMFJ,49,4,0,1.0,0,0,0,3,0,1.0,asocial
01JTS6Z36TH1E3M89RSZA5MMFJ,49,5,0,1.0,19,1,50,7,0,1.0,asocial
01JTS6Z36TH1E3M89RSZA5MMFJ,49,6,0,1.0,0,0,2,1,0,1.0,asocial
01JTS6Z36TH1E3M89RSZA5MMFJ,49,7,0,1.0,0,0,2,1,0,1.0,asocial
01JTS6Z36TH1E3M89RSZA5MMFJ,49,8,0,1.0,1,0,17,2,0,1.0,asocial
01JTS6Z36TH1E3M89RSZA5MMFJ,49,9,0,1.0,0,0,1,0,0,1.0,asocial
01JTS6Z36TH1E3M89RSZA5MMFJ,50,0,0,1.0,25,2,353,34,0,1.0,asocial
01JTS6Z36TH1E3M89RSZA5MMFJ,50,1,0,1.0,0,0,2,2,0,1.0,asocial
01JTS6Z36TH1E3M89RSZA5MMFJ,50,2,0,1.0,0,0,2,1,0,1.0,asocial
01JTS6Z36TH1E3M89RSZA5MMFJ,50,3,0,1.0,0,0,3,1,0,1.0,asocial
01JTS6Z36TH1E3M89RSZA5MMFJ,50,4,0,1.0,0,0,0,3,0,1.0,asocial
01JTS6Z36TH1E3M89RSZA5MMFJ,50,5,0,1.0,19,1,50,7,0,1.0,asocial
01JTS6Z36TH1E3M89RSZA5MMFJ,50,6,0,1.0,0,0,2,1,0,1.0,asocial
01JTS6Z36TH1E3M89RSZA5MMFJ,50,7,0,1.0,0,0,2,1,0,1.0,asocial
01JTS6Z36TH1E3M89RSZA5MMFJ,50,8,0,1.0,1,0,18,2,0,1.0,asocial
01JTS6Z36TH1E3M89RSZA5MMFJ,50,9,0,1.0,0,0,1,0,0,1.0,asocial
01JTS6Z36TH1E3M89RSZA5MMFJ,51,0,0,0.0,26,2,361,35,0,1.0,asocial
01JTS6Z36TH1E3M89RSZA5MMFJ,51,1,0,0.0,0,0,2,2,0,1.0,asocial
01JTS6Z36TH1E3M89RSZA5MMFJ,51,2,0,0.0,0,0,2,1,0,1.0,asocial
01JTS6Z36TH1E3M89RSZA5MMFJ,51,3,0,0.0,0,0,3,1,0,1.0,asocial
01JTS6Z36TH1E3M89RSZA5MMFJ,51,4,0,0.0,0,0,0,3,0,1.0,asocial
01JTS6Z36TH1E3M89RSZA5MMFJ,51,5,0,0.0,19,1,50,7,0,1.0,asocial
01JTS6Z36TH1E3M89RSZA5MMFJ,51,6,0,0.0,0,0,2,1,0,1.0,asocial
01JTS6Z36TH1E3M89RSZA5MMFJ,51,7,0,0.0,0,0,2,1,0,1.0,asocial
01JTS6Z36TH1E3M89RSZA5MMFJ,51,8,0,0.0,1,0,19,2,0,1.0,asocial
01JTS6Z36TH1E3M89RSZA5MMFJ,51,9,0,0.0,0,0,1,0,0,1.0,asocial
01JTS6ZE18EA1XGE24MH4XDNY6,1,0,3,1.0,0,0,0,0,-1,,asocial
01JTS6ZE18EA1XGE24MH4XDNY6,1,1,3,1.0,0,0,0,0,-1,,asocial
01JTS6ZE18EA1XGE24MH4XDNY6,1,2,3,1.0,0,0,0,0,-1,,asocial
01JTS6ZE18EA1XGE24MH4XDNY6,1,3,3,1.0,0,0,0,0,-1,,asocial
01JTS6ZE18EA1XGE24MH4XDNY6,1,4,3,1.0,0,0,0,0,-1,,asocial
01JTS6ZE18EA1XGE24MH4XDNY6,1,5,3,1.0,0,0,0,0,-1,,asocial
01JTS6ZE18EA1XGE24MH4XDNY6,1,6,3,1.0,0,0,0,0,-1,,asocial
01JTS6ZE18EA1XGE24MH4XDNY6,1,7,3,1.0,0,0,0,0,-1,,asocial
01JTS6ZE18EA1XGE24MH4XDNY6,1,8,3,1.0,0,0,0,0,-1,,asocial
01JTS6ZE18EA1XGE24MH4XDNY6,1,9,3,1.0,0,0,0,0,-1,,asocial
01JTS6ZE18EA1XGE24MH4XDNY6,2,0,1,0.0,0,0,1,0,3,1.0,asocial
01JTS6ZE18EA1XGE24MH4XDNY6,2,1,1,0.0,0,0,1,0,3,1.0,asocial
01JTS6ZE18EA1XGE24MH4XDNY6,2,2,1,0.0,0,0,1,0,3,1.0,asocial
01JTS6ZE18EA1XGE24MH4XDNY6,2,3,1,0.0,1,0,1,0,3,1.0,asocial
01JTS6ZE18EA1XGE24MH4XDNY6,2,4,1,0.0,0,0,0,1,3,1.0,asocial
01JTS6ZE18EA1XGE24MH4XDNY6,2,5,1,0.0,0,0,1,0,3,1.0,asocial
01JTS6ZE18EA1XGE24MH4XDNY6,2,6,1,0.0,0,0,1,0,3,1.0,asocial
01JTS6ZE18EA1XGE24MH4XDNY6,2,7,1,0.0,0,0,1,0,3,1.0,asocial
01JTS6ZE18EA1XGE24MH4XDNY6,2,8,1,0.0,0,0,1,0,3,1.0,asocial
01JTS6ZE18EA1XGE24MH4XDNY6,2,9,1,0.0,0,0,1,0,3,1.0,asocial
01JTS6ZE18EA1XGE24MH4XDNY6,3,0,3,1.0,0,0,2,0,1,0.0,asocial
01JTS6ZE18EA1XGE24MH4XDNY6,3,1,3,1.0,0,1,1,1,1,0.0,asocial
01JTS6ZE18EA1XGE24MH4XDNY6,3,2,3,1.0,0,0,1,1,1,0.0,asocial
01JTS6ZE18EA1XGE24MH4XDNY6,3,3,3,1.0,1,0,1,0,1,0.0,asocial
01JTS6ZE18EA1XGE24MH4XDNY6,3,4,3,1.0,0,0,0,2,1,0.0,asocial
01JTS6ZE18EA1XGE24MH4XDNY6,3,5,3,1.0,0,0,2,0,1,0.0,asocial
01JTS6ZE18EA1XGE24MH4XDNY6,3,6,3,1.0,0,0,2,0,1,0.0,asocial
01JTS6ZE18EA1XGE24MH4XDNY6,3,7,3,1.0,0,0,2,0,1,0.0,asocial
01JTS6ZE18EA1XGE24MH4XDNY6,3,8,3,1.0,0,0,2,0,1,0.0,asocial
01JTS6ZE18EA1XGE24MH4XDNY6,3,9,3,1.0,0,0,1,0,1,0.0,asocial
01JTS6ZE18EA1XGE24MH4XDNY6,4,0,5,1.0,0,0,4,0,3,1.0,asocial
01JTS6ZE18EA1XGE24MH4XDNY6,4,1,5,1.0,0,1,1,1,3,1.0,asocial
01JTS6ZE18EA1XGE24MH4XDNY6,4,2,5,1.0,0,0,2,1,3,1.0,asocial
01JTS6ZE18EA1XGE24MH4XDNY6,4,3,5,1.0,2,0,3,1,3,1.0,asocial
01JTS6ZE18EA1XGE24MH4XDNY6,4,4,5,1.0,0,0,0,2,3,1.0,asocial
01JTS6ZE18EA1XGE24MH4XDNY6,4,5,5,1.0,0,0,4,0,3,1.0,asocial
01JTS6ZE18EA1XGE24MH4XDNY6,4,6,5,1.0,0,0,2,1,3,1.0,asocial
01JTS6ZE18EA1XGE24MH4XDNY6,4,7,5,1.0,0,0,2,1,3,1.0,asocial
01JTS6ZE18EA1XGE24MH4XDNY6,4,8,5,1.0,0,0,2,0,3,1.0,asocial
01JTS6ZE18EA1XGE24MH4XDNY6,4,9,5,1.0,0,0,1,0,3,1.0,asocial
01JTS6ZE18EA1XGE24MH4XDNY6,5,0,0,0.0,0,0,9,1,5,1.0,asocial
01JTS6ZE18EA1XGE24MH4XDNY6,5,1,0,0.0,0,1,1,1,5,1.0,asocial
01JTS6ZE18EA1XGE24MH4XDNY6,5,2,0,0.0,0,0,2,1,5,1.0,asocial
01JTS6ZE18EA1XGE24MH4XDNY6,5,3,0,0.0,2,0,3,1,5,1.0,asocial
01JTS6ZE18EA1XGE24MH4XDNY6,5,4,0,0.0,0,0,0,2,5,1.0,asocial
01JTS6ZE18EA1XGE24MH4XDNY6,5,5,0,0.0,1,0,8,0,5,1.0,asocial
01JTS6ZE18EA1XGE24MH4XDNY6,5,6,0,0.0,0,0,2,1,5,1.0,asocial
01JTS6ZE18EA1XGE24MH4XDNY6,5,7,0,0.0,0,0,2,1,5,1.0,asocial
01JTS6ZE18EA1XGE24MH4XDNY6,5,8,0,0.0,0,0,2,0,5,1.0,asocial
01JTS6ZE18EA1XGE24MH4XDNY6,5,9,0,0.0,0,0,1,0,5,1.0,asocial
01JTS6ZE18EA1XGE24MH4XDNY6,6,0,0,1.0,0,1,14,2,0,0.0,asocial
01JTS6ZE18EA1XGE24MH4XDNY6,6,1,0,1.0,0,1,1,1,0,0.0,asocial
01JTS6ZE18EA1XGE24MH4XDNY6,6,2,0,1.0,0,0,2,1,0,0.0,asocial
01JTS6ZE18EA1XGE24MH4XDNY6,6,3,0,1.0,2,0,3,1,0,0.0,asocial
01JTS6ZE18EA1XGE24MH4XDNY6,6,4,0,1.0,0,0,0,2,0,0.0,asocial
01JTS6ZE18EA1XGE24MH4XDNY6,6,5,0,1.0,1,0,11,1,0,0.0,asocial
01JTS6ZE18EA1XGE24MH4XDNY6,6,6,0,1.0,0,0,2,1,0,0.0,asocial
01JTS6ZE18EA1XGE24MH4XDNY6,6,7,0,1.0,0,0,2,1,0,0.0,asocial
01JTS6ZE18EA1XGE24MH4XDNY6,6,8,0,1.0,0,0,2,0,0,0.0,asocial
01JTS6ZE18EA1XGE24MH4XDNY6,6,9,0,1.0,0,0,1,0,0,0.0,asocial
01JTS6ZE18EA1XGE24MH4XDNY6,7,0,5,1.0,1,1,21,4,0,1.0,asocial
01JTS6ZE18EA1XGE24MH4XDNY6,7,1,5,1.0,0,1,2,1,0,1.0,asocial
01JTS6ZE18EA1XGE24MH4XDNY6,7,2,5,1.0,0,0,2,1,0,1.0,asocial
01JTS6ZE18EA1XGE24MH4XDNY6,7,3,5,1.0,2,0,3,1,0,1.0,asocial
01JTS6ZE18EA1XGE24MH4XDNY6,7,4,5,1.0,0,0,0,2,0,1.0,asocial
01JTS6ZE18EA1XGE24MH4XDNY6,7,5,5,1.0,1,0,11,1,0,1.0,asocial
01JTS6ZE18EA1XGE24MH4XDNY6,7,6,5,1.0,0,0,2,1,0,1.0,asocial
01JTS6ZE18EA1XGE24MH4XDNY6,7,7,5,1.0,0,0,2,1,0,1.0,asocial
01JTS6ZE18EA1XGE24MH4XDNY6,7,8,5,1.0,0,0,2,0,0,1.0,asocial
01JTS6ZE18EA1XGE24MH4XDNY6,7,9,5,1.0,0,0,1,0,0,1.0,asocial
01JTS6ZE18EA1XGE24MH4XDNY6,8,0,0,1.0,1,1,26,4,5,1.0,asocial
01JTS6ZE18EA1XGE24MH4XDNY6,8,1,0,1.0,0,1,2,1,5,1.0,asocial
01JTS6ZE18EA1XGE24MH4XDNY6,8,2,0,1.0,0,0,2,1,5,1.0,asocial
01JTS6ZE18EA1XGE24MH4XDNY6,8,3,0,1.0,2,0,3,1,5,1.0,asocial
01JTS6ZE18EA1XGE24MH4XDNY6,8,4,0,1.0,0,0,0,2,5,1.0,asocial
01JTS6ZE18EA1XGE24MH4XDNY6,8,5,0,1.0,2,0,15,2,5,1.0,asocial
01JTS6ZE18EA1XGE24MH4XDNY6,8,6,0,1.0,0,0,2,1,5,1.0,asocial
01JTS6ZE18EA1XGE24MH4XDNY6,8,7,0,1.0,0,0,2,1,5,1.0,asocial
01JTS6ZE18EA1XGE24MH4XDNY6,8,8,0,1.0,0,0,2,0,5,1.0,asocial
01JTS6ZE18EA1XGE24MH4XDNY6,8,9,0,1.0,0,0,1,0,5,1.0,asocial
01JTS6ZE18EA1XGE24MH4XDNY6,9,0,0,0.0,2,1,33,4,0,1.0,asocial
01JTS6ZE18EA1XGE24MH4XDNY6,9,1,0,0.0,0,1,2,1,0,1.0,asocial
01JTS6ZE18EA1XGE24MH4XDNY6,9,2,0,0.0,0,0,2,1,0,1.0,asocial
01JTS6ZE18EA1XGE24MH4XDNY6,9,3,0,0.0,2,0,3,1,0,1.0,asocial
01JTS6ZE18EA1XGE24MH4XDNY6,9,4,0,0.0,0,0,0,2,0,1.0,asocial
01JTS6ZE18EA1XGE24MH4XDNY6,9,5,0,0.0,2,0,18,2,0,1.0,asocial
01JTS6ZE18EA1XGE24MH4XDNY6,9,6,0,0.0,0,0,2,1,0,1.0,asocial
01JTS6ZE18EA1XGE24MH4XDNY6,9,7,0,0.0,0,0,2,1,0,1.0,asocial
01JTS6ZE18EA1XGE24MH4XDNY6,9,8,0,0.0,0,0,2,0,0,1.0,asocial
01JTS6ZE18EA1XGE24MH4XDNY6,9,9,0,0.0,0,0,1,0,0,1.0,asocial
01JTS6ZE18EA1XGE24MH4XDNY6,10,0,5,1.0,2,2,39,6,0,0.0,asocial
01JTS6ZE18EA1XGE24MH4XDNY6,10,1,5,1.0,0,1,2,1,0,0.0,asocial
01JTS6ZE18EA1XGE24MH4XDNY6,10,2,5,1.0,0,0,2,1,0,0.0,asocial
01JTS6ZE18EA1XGE24MH4XDNY6,10,3,5,1.0,2,0,3,1,0,0.0,asocial
01JTS6ZE18EA1XGE24MH4XDNY6,10,4,5,1.0,0,0,0,2,0,0.0,asocial
01JTS6ZE18EA1XGE24MH4XDNY6,10,5,5,1.0,2,0,19,3,0,0.0,asocial
01JTS6ZE18EA1XGE24MH4XDNY6,10,6,5,1.0,0,0,2,1,0,0.0,asocial
01JTS6ZE18EA1XGE24MH4XDNY6,10,7,5,1.0,0,0,2,1,0,0.0,asocial
01JTS6ZE18EA1XGE24MH4XDNY6,10,8,5,1.0,0,0,2,0,0,0.0,asocial
01JTS6ZE18EA1XGE24MH4XDNY6,10,9,5,1.0,0,0,1,0,0,0.0,asocial
01JTS6ZE18EA1XGE24MH4XDNY6,11,0,5,1.0,2,2,44,8,5,1.0,asocial
01JTS6ZE18EA1XGE24MH4XDNY6,11,1,5,1.0,0,1,2,1,5,1.0,asocial
01JTS6ZE18EA1XGE24MH4XDNY6,11,2,5,1.0,0,0,2,1,5,1.0,asocial
01JTS6ZE18EA1XGE24MH4XDNY6,11,3,5,1.0,2,0,3,1,5,1.0,asocial
01JTS6ZE18EA1XGE24MH4XDNY6,11,4,5,1.0,0,0,0,2,5,1.0,asocial
01JTS6ZE18EA1XGE24MH4XDNY6,11,5,5,1.0,3,0,21,4,5,1.0,asocial
01JTS6ZE18EA1XGE24MH4XDNY6,11,6,5,1.0,0,0,2,1,5,1.0,asocial
01JTS6ZE18EA1XGE24MH4XDNY6,11,7,5,1.0,0,0,2,1,5,1.0,asocial
01JTS6ZE18EA1XGE24MH4XDNY6,11,8,5,1.0,0,0,2,0,5,1.0,asocial
01JTS6ZE18EA1XGE24MH4XDNY6,11,9,5,1.0,0,0,1,0,5,1.0,asocial
01JTS6ZE18EA1XGE24MH4XDNY6,12,0,0,1.0,2,2,51,9,5,1.0,asocial
01JTS6ZE18EA1XGE24MH4XDNY6,12,1,0,1.0,0,1,2,1,5,1.0,asocial
01JTS6ZE18EA1XGE24MH4XDNY6,12,2,0,1.0,0,0,2,1,5,1.0,asocial
01JTS6ZE18EA1XGE24MH4XDNY6,12,3,0,1.0,2,0,3,1,5,1.0,asocial
01JTS6ZE18EA1XGE24MH4XDNY6,12,4,0,1.0,0,0,0,2,5,1.0,asocial
01JTS6ZE18EA1XGE24MH4XDNY6,12,5,0,1.0,4,0,23,4,5,1.0,asocial
01JTS6ZE18EA1XGE24MH4XDNY6,12,6,0,1.0,0,0,2,1,5,1.0,asocial
01JTS6ZE18EA1XGE24MH4XDNY6,12,7,0,1.0,0,0,2,1,5,1.0,asocial
01JTS6ZE18EA1XGE24MH4XDNY6,12,8,0,1.0,0,0,2,0,5,1.0,asocial
01JTS6ZE18EA1XGE24MH4XDNY6,12,9,0,1.0,0,0,1,0,5,1.0,asocial
01JTS6ZE18EA1XGE24MH4XDNY6,13,0,5,1.0,3,2,58,10,0,1.0,asocial
01JTS6ZE18EA1XGE24MH4XDNY6,13,1,5,1.0,0,1,2,1,0,1.0,asocial
01JTS6ZE18EA1XGE24MH4XDNY6,13,2,5,1.0,0,0,2,1,0,1.0,asocial
01JTS6ZE18EA1XGE24MH4XDNY6,13,3,5,1.0,2,0,3,1,0,1.0,asocial
01JTS6ZE18EA1XGE24MH4XDNY6,13,4,5,1.0,0,0,0,3,0,1.0,asocial
01JTS6ZE18EA1XGE24MH4XDNY6,13,5,5,1.0,4,0,24,4,0,1.0,asocial
01JTS6ZE18EA1XGE24MH4XDNY6,13,6,5,1.0,0,0,2,1,0,1.0,asocial
01JTS6ZE18EA1XGE24MH4XDNY6,13,7,5,1.0,0,0,2,1,0,1.0,asocial
01JTS6ZE18EA1XGE24MH4XDNY6,13,8,5,1.0,0,0,2,0,0,1.0,asocial
01JTS6ZE18EA1XGE24MH4XDNY6,13,9,5,1.0,0,0,1,0,0,1.0,asocial
01JTS6ZE18EA1XGE24MH4XDNY6,14,0,0,1.0,3,2,65,10,5,1.0,asocial
01JTS6ZE18EA1XGE24MH4XDNY6,14,1,0,1.0,0,1,2,1,5,1.0,asocial
01JTS6ZE18EA1XGE24MH4XDNY6,14,2,0,1.0,0,0,2,1,5,1.0,asocial
01JTS6ZE18EA1XGE24MH4XDNY6,14,3,0,1.0,2,0,3,1,5,1.0,asocial
01JTS6ZE18EA1XGE24MH4XDNY6,14,4,0,1.0,0,0,0,3,5,1.0,asocial
01JTS6ZE18EA1XGE24MH4XDNY6,14,5,0,1.0,5,0,27,4,5,1.0,asocial
01JTS6ZE18EA1XGE24MH4XDNY6,14,6,0,1.0,0,0,2,1,5,1.0,asocial
01JTS6ZE18EA1XGE24MH4XDNY6,14,7,0,1.0,0,0,2,1,5,1.0,asocial
01JTS6ZE18EA1XGE24MH4XDNY6,14,8,0,1.0,0,0,2,0,5,1.0,asocial
01JTS6ZE18EA1XGE24MH4XDNY6,14,9,0,1.0,0,0,1,0,5,1.0,asocial
