participant_id,round,arm,choice,reward,own_success,own_failure,group_success,group_failure,prev_choice,prev_reward,condition
01JW028WRQC1M51MDV0NPAZCJ4,1,0,7,1.0,0,0,0,0,-1,,asocial
01JW028WRQC1M51MDV0NPAZCJ4,1,1,7,1.0,0,0,0,0,-1,,asocial
01JW028WRQC1M51MDV0NPAZCJ4,1,2,7,1.0,0,0,0,0,-1,,asocial
01JW028WRQC1M51MDV0NPAZCJ4,1,3,7,1.0,0,0,0,0,-1,,asocial
01JW028WRQC1M51MDV0NPAZCJ4,1,4,7,1.0,0,0,0,0,-1,,asocial
01JW028WRQC1M51MDV0NPAZCJ4,1,5,7,1.0,0,0,0,0,-1,,asocial
01JW028WRQC1M51MDV0NPAZCJ4,1,6,7,1.0,0,0,0,0,-1,,asocial
01JW028WRQC1M51MDV0NPAZCJ4,1,7,7,1.0,0,0,0,0,-1,,asocial
01JW028WRQC1M51MDV0NPAZCJ4,1,8,7,1.0,0,0,0,0,-1,,asocial
01JW028WRQC1M51MDV0NPAZCJ4,1,9,7,1.0,0,0,0,0,-1,,asocial
01JW028WRQC1M51MDV0NPAZCJ4,2,0,7,1.0,0,0,1,0,7,1.0,asocial
01JW028WRQC1M51MDV0NPAZCJ4,2,1,7,1.0,0,0,1,0,7,1.0,asocial
01JW028WRQC1M51MDV0NPAZCJ4,2,2,7,1.0,0,0,1,0,7,1.0,asocial
01JW028WRQC1M51MDV0NPAZCJ4,2,3,7,1.0,0,0,0,1,7,1.0,asocial
01JW028WRQC1M51MDV0NPAZCJ4,2,4,7,1.0,0,0,1,0,7,1.0,asocial
01JW028WRQC1M51MDV0NPAZCJ4,2,5,7,1.0,0,0,0,1,7,1.0,asocial
01JW028WRQC1M51MDV0NPAZCJ4,2,6,7,1.0,0,0,1,0,7,1.0,asocial
01JW028WRQC1M51MDV0NPAZCJ4,2,7,7,1.0,1,0,1,0,7,1.0,asocial
01JW028WRQC1M51MDV0NPAZCJ4,2,8,7,1.0,0,0,1,0,7,1.0,asocial
01JW028WRQC1M51MDV0NPAZCJ4,2,9,7,1.0,0,0,1,0,7,1.0,asocial
01JW028WRQC1M51MDV0NPAZCJ4,3,0,7,1.0,0,0,1,1,7,1.0,asocial
01JW028WRQC1M51MDV0NPAZCJ4,3,1,7,1.0,0,0,2,0,7,1.0,asocial
01JW028WRQC1M51MDV0NPAZCJ4,3,2,7,1.0,0,0,2,0,7,1.0,asocial
01JW028WRQC1M51MDV0NPAZCJ4,3,3,7,1.0,0,0,1,1,7,1.0,asocial
01JW028WRQC1M51MDV0NPAZCJ4,3,4,7,1.0,0,0,2,0,7,1.0,asocial
01JW028WRQC1M51MDV0NPAZCJ4,3,5,7,1.0,0,0,1,1,7,1.0,asocial
01JW028WRQC1M51MDV0NPAZCJ4,3,6,7,1.0,0,0,2,0,7,1.0,asocial
01JW028WRQC1M51MDV0NPAZCJ4,3,7,7,1.0,2,0,2,0,7,1.0,asocial
01JW028WRQC1M51MDV0NPAZCJ4,3,8,7,1.0,0,0,2,0,7,1.0,asocial
01JW028WRQC1M51MDV0NPAZCJ4,3,9,7,1.0,0,0,2,0,7,1.0,asocial
01JW028WRQC1M51MDV0NPAZCJ4,4,0,7,1.0,0,0,1,1,7,1.0,asocial
01JW028WRQC1M51MDV0NPAZCJ4,4,1,7,1.0,0,0,3,0,7,1.0,asocial
01JW028WRQC1M51MDV0NPAZCJ4,4,2,7,1.0,0,0,3,0,7,1.0,asocial
01JW028WRQC1M51MDV0NPAZCJ4,4,3,7,1.0,0,0,2,2,7,1.0,asocial
01JW028WRQC1M51MDV0NPAZCJ4,4,4,7,1.0,0,0,2,0,7,1.0,asocial
01JW028WRQC1M51MDV0NPAZCJ4,4,5,7,1.0,0,0,1,1,7,1.0,asocial
01JW028WRQC1M51MDV0NPAZCJ4,4,6,7,1.0,0,0,4,0,7,1.0,asocial
01JW028WRQC1M51MDV0NPAZCJ4,4,7,7,1.0,3,0,5,0,7,1.0,asocial
01JW028WRQC1M51MDV0NPAZCJ4,4,8,7,1.0,0,0,3,0,7,1.0,asocial
01JW028WRQC1M51MDV0NPAZCJ4,4,9,7,1.0,0,0,2,0,7,1.0,asocial
01JW028WRQC1M51MDV0NPAZCJ4,5,0,7,1.0,0,0,1,1,7,1.0,asocial
01JW028WRQC1M51MDV0NPAZCJ4,5,1,7,1.0,0,0,4,1,7,1.0,asocial
01JW028WRQC1M51MDV0NPAZCJ4,5,2,7,1.0,0,0,4,0,7,1.0,asocial
01JW028WRQC1M51MDV0NPAZCJ4,5,3,7,1.0,0,0,3,2,7,1.0,asocial
01JW028WRQC1M51MDV0NPAZCJ4,5,4,7,1.0,0,0,2,0,7,1.0,asocial
01JW028WRQC1M51MDV0NPAZCJ4,5,5,7,1.0,0,0,1,1,7,1.0,asocial
01JW028WRQC1M51MDV0NPAZCJ4,5,6,7,1.0,0,0,6,0,7,1.0,asocial
01JW028WRQC1M51MDV0NPAZCJ4,5,7,7,1.0,4,0,8,0,7,1.0,asocial
01JW028WRQC1M51MDV0NPAZCJ4,5,8,7,1.0,0,0,4,0,7,1.0,asocial
01JW028WRQC1M51MDV0NPAZCJ4,5,9,7,1.0,0,0,2,0,7,1.0,asocial
01JW028WRQC1M51MDV0NPAZCJ4,6,0,7,1.0,0,0,1,1,7,1.0,asocial
01JW028WRQC1M51MDV0NPAZCJ4,6,1,7,1.0,0,0,5,1,7,1.0,asocial
01JW028WRQC1M51MDV0NPAZCJ4,6,2,7,1.0,0,0,5,0,7,1.0,asocial
01JW028WRQC1M51MDV0NPAZCJ4,6,3,7,1.0,0,0,4,2,7,1.0,asocial
01JW028WRQC1M51MDV0NPAZCJ4,6,4,7,1.0,0,0,2,1,7,1.0,asocial
01JW028WRQC1M51MDV0NPAZCJ4,6,5,7,1.0,0,0,1,1,7,1.0,asocial
01JW028WRQC1M51MDV0NPAZCJ4,6,6,7,1.0,0,0,8,0,7,1.0,asocial
01JW028WRQC1M51MDV0NPAZCJ4,6,7,7,1.0,5,0,10,0,7,1.0,asocial
01JW028WRQC1M51MDV0NPAZCJ4,6,8,7,1.0,0,0,5,0,7,1.0,asocial
01JW028WRQC1M51MDV0NPAZCJ4,6,9,7,1.0,0,0,3,0,7,1.0,asocial
01JW028WRQC1M51MDV0NPAZCJ4,7,0,7,1.0,0,0,1,1,7,1.0,asocial
01JW028WRQC1M51MDV0NPAZCJ4,7,1,7,1.0,0,0,8,1,7,1.0,asocial
01JW028WRQC1M51MDV0NPAZCJ4,7,2,7,1.0,0,0,7,0,7,1.0,asocial
01JW028WRQC1M51MDV0NPAZCJ4,7,3,7,1.0,0,0,5,2,7,1.0,asocial
01JW028WRQC1M51MDV0NPAZCJ4,7,4,7,1.0,0,0,2,1,7,1.0,asocial
01JW028WRQC1M51MDV0NPAZCJ4,7,5,7,1.0,0,0,1,1,7,1.0,asocial
01JW028WRQC1M51MDV0NPAZCJ4,7,6,7,1.0,0,0,8,0,7,1.0,asocial
01JW028WRQC1M51MDV0NPAZCJ4,7,7,7,1.0,6,0,12,0,7,1.0,asocial
01JW028WRQC1M51MDV0NPAZCJ4,7,8,7,1.0,0,0,6,0,7,1.0,asocial
01JW028WRQC1M51MDV0NPAZCJ4,7,9,7,1.0,0,0,4,0,7,1.0,asocial
01JW028WRQC1M51MDV0NPAZCJ4,8,0,7,1.0,0,0,1,1,7,1.0,asocial
01JW028WRQC1M51MDV0NPAZCJ4,8,1,7,1.0,0,0,10,1,7,1.0,asocial
01JW028WRQC1M51MDV0NPAZCJ4,8,2,7,1.0,0,0,8,0,7,1.0,asocial
01JW028WRQC1M51MDV0NPAZCJ4,8,3,7,1.0,0,0,6,2,7,1.0,asocial
01JW028WRQC1M51MDV0NPAZCJ4,8,4,7,1.0,0,0,2,1,7,1.0,asocial
01JW028WRQC1M51MDV0NPAZCJ4,8,5,7,1.0,0,0,2,1,7,1.0,asocial
01JW028WRQC1M51MDV0NPAZCJ4,8,6,7,1.0,0,0,9,0,7,1.0,asocial
01JW028WRQC1M51MDV0NPAZCJ4,8,7,7,1.0,7,0,15,0,7,1.0,asocial
01JW028WRQC1M51MDV0NPAZCJ4,8,8,7,1.0,0,0,7,0,7,1.0,asocial
01JW028WRQC1M51MDV0NPAZCJ4,8,9,7,1.0,0,0,4,0,7,1.0,asocial
01JW028WRQC1M51MDV0NPAZCJ4,9,0,7,1.0,0,0,2,1,7,1.0,asocial
01JW028WRQC1M51MDV0NPAZCJ4,9,1,7,1.0,0,0,13,1,7,1.0,asocial
01JW028WRQC1M51MDV0NPAZCJ4,9,2,7,1.0,0,0,9,0,7,1.0,asocial
01JW028WRQC1M51MDV0NPAZCJ4,9,3,7,1.0,0,0,7,2,7,1.0,asocial
01JW028WRQC1M51MDV0NPAZCJ4,9,4,7,1.0,0,0,2,1,7,1.0,asocial
01JW028WRQC1M51MDV0NPAZCJ4,9,5,7,1.0,0,0,2,1,7,1.0,asocial
01JW028WRQC1M51MDV0NPAZCJ4,9,6,7,1.0,0,0,10,0,7,1.0,asocial
01JW028WRQC1M51MDV0NPAZCJ4,9,7,7,1.0,8,0,17,0,7,1.0,asocial
01JW028WRQC1M51MDV0NPAZCJ4,9,8,7,1.0,0,0,8,0,7,1.0,asocial
01JW028WRQC1M51MDV0NPAZCJ4,9,9,7,1.0,0,0,4,0,7,1.0,asocial
01JW028WRQC1M51MDV0NPAZCJ4,10,0,7,1.0,0,0,3,1,7,1.0,asocial
01JW028WRQC1M51MDV0NPAZCJ4,10,1,7,1.0,0,0,15,1,7,1.0,asocial
01JW028WRQC1M51MDV0NPAZCJ4,10,2,7,1.0,0,0,10,0,7,1.0,asocial
01JW028WRQC1M51MDV0NPAZCJ4,10,3,7,1.0,0,0,9,2,7,1.0,asocial
01JW028WRQC1M51MDV0NPAZCJ4,10,4,7,1.0,0,0,2,1,7,1.0,asocial
01JW028WRQC1M51MDV0NPAZCJ4,10,5,7,1.0,0,0,2,1,7,1.0,asocial
01JW028WRQC1M51MDV0NPAZCJ4,10,6,7,1.0,0,0,11,0,7,1.0,asocial
01JW028WRQC1M51MDV0NPAZCJ4,10,7,7,1.0,9,0,18,0,7,1.0,asocial
01JW028WRQC1M51MDV0NPAZCJ4,10,8,7,1.0,0,0,9,0,7,1.0,asocial
01JW028WRQC1M51MDV0NPAZCJ4,10,9,7,1.0,0,0,5,0,7,1.0,asocial
01JW028WRQC1M51MDV0NPAZCJ4,11,0,7,1.0,0,0,3,1,7,1.0,asocial
01JW028WRQC1M51MDV0NPAZCJ4,11,1,7,1.0,0,0,17,1,7,1.0,asocial
01JW028WRQC1M51MDV0NPAZCJ4,11,2,7,1.0,0,0,12,0,7,1.0,asocial
01JW028WRQC1M51MDV0NPAZCJ4,11,3,7,1.0,0,0,10,2,7,1.0,asocial
01JW028WRQC1M51MDV0NPAZCJ4,11,4,7,1.0,0,0,2,1,7,1.0,asocial
01JW028WRQC1M51MDV0NPAZCJ4,11,5,7,1.0,0,0,3,1,7,1.0,asocial
01JW028WRQC1M51MDV0NPAZCJ4,11,6,7,1.0,0,0,12,0,7,1.0,asocial
01JW028WRQC1M51MDV0NPAZCJ4,11,7,7,1.0,10,0,19,1,7,1.0,asocial
01JW028WRQC1M51MDV0NPAZCJ4,11,8,7,1.0,0,0,10,0,7,1.0,asocial
01JW028WRQC1M51MDV0NPAZCJ4,11,9,7,1.0,0,0,5,0,7,1.0,asocial
01JW028WRQC1M51MDV0NPAZCJ4,12,0,7,1.0,0,0,3,1,7,1.0,asocial
01JW028WRQC1M51MDV0NPAZCJ4,12,1,7,1.0,0,0,18,1,7,1.0,asocial
01JW028WRQC1M51MDV0NPAZCJ4,12,2,7,1.0,0,0,14,0,7,1.0,asocial
01JW028WRQC1M51MDV0NPAZCJ4,12,3,7,1.0,0,0,11,2,7,1.0,asocial
01JW028WRQC1M51MDV0NPAZCJ4,12,4,7,1.0,0,0,2,1,7,1.0,asocial
01JW028WRQC1M51MDV0NPAZCJ4,12,5,7,1.0,0,0,3,1,7,1.0,asocial
01JW028WRQC1M51MDV0NPAZCJ4,12,6,7,1.0,0,0,13,0,7,1.0,asocial
01JW028WRQC1M51MDV0NPAZCJ4,12,7,7,1.0,11,0,20,1,7,1.0,asocial
01JW028WRQC1M51MDV0NPAZCJ4,12,8,7,1.0,0,0,11,1,7,1.0,asocial
01JW028WRQC1M51MDV0NPAZCJ4,12,9,7,1.0,0,0,6,1,7,1.0,asocial
01JW028WRQC1M51MDV0NPAZCJ4,13,0,7,1.0,0,0,4,1,7,1.0,asocial
01JW028WRQC1M51MDV0NPAZCJ4,13,1,7,1.0,0,0,19,1,7,1.0,asocial
01JW028WRQC1M51MDV0NPAZCJ4,13,2,7,1.0,0,0,16,0,7,1.0,asocial
01JW028WRQC1M51MDV0NPAZCJ4,13,3,7,1.0,0,0,12,2,7,1.0,asocial
01JW028WRQC1M51MDV0NPAZCJ4,13,4,7,1.0,0,0,2,1,7,1.0,asocial
01JW028WRQC1M51MDV0NPAZCJ4,13,5,7,1.0,0,0,4,1,7,1.0,asocial
01JW028WRQC1M51MDV0NPAZCJ4,13,6,7,1.0,0,0,14,0,7,1.0,asocial
01JW028WRQC1M51MDV0NPAZCJ4,13,7,7,1.0,12,0,21,1,7,1.0,asocial
01JW028WRQC1M51MDV0NPAZCJ4,13,8,7,1.0,0,0,12,1,7,1.0,asocial
01JW028WRQC1M51MDV0NPAZCJ4,13,9,7,1.0,0,0,7,1,7,1.0,asocial
01JW028WRQC1M51MDV0NPAZCJ4,14,0,7,1.0,0,0,5,1,7,1.0,asocial
01JW028WRQC1M51MDV0NPAZCJ4,14,1,7,1.0,0,0,20,1,7,1.0,asocial
01JW028WRQC1M51MDV0NPAZCJ4,14,2,7,1.0,0,0,19,0,7,1.0,asocial
01JW028WRQC1M51MDV0NPAZCJ4,14,3,7,1.0,0,0,13,2,7,1.0,asocial
01JW028WRQC1M51MDV0NPAZCJ4,14,4,7,1.0,0,0,2,1,7,1.0,asocial
01JW028WRQC1M51MDV0NPAZCJ4,14,5,7,1.0,0,0,5,1,7,1.0,asocial
01JW028WRQC1M51MDV0NPAZCJ4,14,6,7,1.0,0,0,15,0,7,1.0,asocial
01JW028WRQC1M51MDV0NPAZCJ4,14,7,7,1.0,13,0,22,1,7,1.0,asocial
01JW028WRQC1M51MDV0NPAZCJ4,14,8,7,1.0,0,0,13,1,7,1.0,asocial
01JW028WRQC1M51MDV0NPAZCJ4,14,9,7,1.0,0,0,7,1,7,1.0,asocial
01JW028WRQC1M51MDV0NPAZCJ4,15,0,7,1.0,0,0,5,1,7,1.0,asocial
01JW028WRQC1M51MDV0NPAZCJ4,15,1,7,1.0,0,0,21,1,7,1.0,asocial
01JW028WRQC1M51MDV0NPAZCJ4,15,2,7,1.0,0,0,21,0,7,1.0,asocial
01JW028WRQC1M51MDV0NPAZCJ4,15,3,7,1.0,0,0,14,2,7,1.0,asocial
01JW028WRQC1M51MDV0NPAZCJ4,15,4,7,1.0,0,0,3,1,7,1.0,asocial
01JW028WRQC1M51MDV0NPAZCJ4,15,5,7,1.0,0,0,5,1,7,1.0,asocial
01JW028WRQC1M51MDV0NPAZCJ4,15,6,7,1.0,0,0,17,0,7,1.0,asocial
01JW028WRQC1M51MDV0NPAZCJ4,15,7,7,1.0,14,0,23,1,7,1.0,asocial
01JW028WRQC1M51MDV0NPAZCJ4,15,8,7,1.0,0,0,14,2,7,1.0,asocial
01JW028WRQC1M51MDV0NPAZCJ4,15,9,7,1.0,0,0,7,1,7,1.0,asocial
01JW028WRQC1M51MDV0NPAZCJ4,16,0,7,0.0,0,0,5,1,7,1.0,asocial
01JW028WRQC1M51MDV0NPAZCJ4,16,1,7,0.0,0,0,22,1,7,1.0,asocial
01JW028WRQC1M51MDV0NPAZCJ4,16,2,7,0.0,0,0,22,1,7,1.0,asocial
01JW028WRQC1M51MDV0NPAZCJ4,16,3,7,0.0,0,0,15,2,7,1.0,asocial
01JW028WRQC1M51MDV0NPAZCJ4,16,4,7,0.0,0,0,4,1,7,1.0,asocial
01JW028WRQC1M51MDV0NPAZCJ4,16,5,7,0.0,0,0,5,1,7,1.0,asocial
01JW028WRQC1M51MDV0NPAZCJ4,16,6,7,0.0,0,0,19,0,7,1.0,asocial
01JW028WRQC1M51MDV0NPAZCJ4,16,7,7,0.0,15,0,24,1,7,1.0,asocial
01JW028WRQC1M51MDV0NPAZCJ4,16,8,7,0.0,0,0,16,2,7,1.0,asocial
01JW028WRQC1M51MDV0NPAZCJ4,16,9,7,0.0,0,0,7,1,7,1.0,asocial
01JW028WRQC1M51MDV0NPAZCJ4,17,0,7,1.0,0,0,5,1,7,0.0,asocial
01JW028WRQC1M51MDV0NPAZCJ4,17,1,7,1.0,0,0,25,1,7,0.0,asocial
01JW028WRQC1M51MDV0NPAZCJ4,17,2,7,1.0,0,0,23,1,7,0.0,asocial
01JW028WRQC1M51MDV0NPAZCJ4,17,3,7,1.0,0,0,16,2,7,0.0,asocial
01JW028WRQC1M51MDV0NPAZCJ4,17,4,7,1.0,0,0,4,1,7,0.0,asocial
01JW028WRQC1M51MDV0NPAZCJ4,17,5,7,1.0,0,0,5,1,7,0.0,asocial
01JW028WRQC1M51MDV0NPAZCJ4,17,6,7,1.0,0,0,21,0,7,0.0,asocial
01JW028WRQC1M51MDV0NPAZCJ4,17,7,7,1.0,15,1,24,2,7,0.0,asocial
01JW028WRQC1M51MDV0NPAZCJ4,17,8,7,1.0,0,0,18,2,7,0.0,asocial
01JW028WRQC1M51MDV0NPAZCJ4,17,9,7,1.0,0,0,7,1,7,0.0,asocial
01JW028WRQC1M51MDV0NPAZCJ4,18,0,7,1.0,0,0,5,1,7,1.0,asocial
01JW028WRQC1M51MDV0NPAZCJ4,18,1,7,1.0,0,0,26,1,7,1.0,asocial
01JW028WRQC1M51MDV0NPAZCJ4,18,2,7,1.0,0,0,24,1,7,1.0,asocial
01JW028WRQC1M51MDV0NPAZCJ4,18,3,7,1.0,0,0,17,2,7,1.0,asocial
01JW028WRQC1M51MDV0NPAZCJ4,18,4,7,1.0,0,0,5,1,7,1.0,asocial
01JW028WRQC1M51MDV0NPAZCJ4,18,5,7,1.0,0,0,6,1,7,1.0,asocial
01JW028WRQC1M51MDV0NPAZCJ4,18,6,7,1.0,0,0,21,1,7,1.0,asocial
01JW028WRQC1M51MDV0NPAZCJ4,18,7,7,1.0,16,1,26,2,7,1.0,asocial
01JW028WRQC1M51MDV0NPAZCJ4,18,8,7,1.0,0,0,18,3,7,1.0,asocial
01JW028WRQC1M51MDV0NPAZCJ4,18,9,7,1.0,0,0,8,1,7,1.0,asocial
01JW028WRQC1M51MDV0NPAZCJ4,19,0,7,1.0,0,0,6,1,7,1.0,asocial
01JW028WRQC1M51MDV0NPAZCJ4,19,1,7,1.0,0,0,27,1,7,1.0,asocial
01JW028WRQC1M51MDV0NPAZCJ4,19,2,7,1.0,0,0,25,1,7,1.0,asocial
01JW028WRQC1M51MDV0NPAZCJ4,19,3,7,1.0,0,0,19,2,7,1.0,asocial
01JW028WRQC1M51MDV0NPAZCJ4,19,4,7,1.0,0,0,5,1,7,1.0,asocial
01JW028WRQC1M51MDV0NPAZCJ4,19,5,7,1.0,0,0,6,1,7,1.0,asocial
01JW028WRQC1M51MDV0NPAZCJ4,19,6,7,1.0,0,0,24,1,7,1.0,asocial
01JW028WRQC1M51MDV0NPAZCJ4,19,7,7,1.0,17,1,27,2,7,1.0,asocial
01JW028WRQC1M51MDV0NPAZCJ4,19,8,7,1.0,0,0,19,3,7,1.0,asocial
01JW028WRQC1M51MDV0NPAZCJ4,19,9,7,1.0,0,0,8,1,7,1.0,asocial
01JW028WRQC1M51MDV0NPAZCJ4,20,0,7,0.0,0,0,6,1,7,1.0,asocial
01JW028WRQC1M51MDV0NPAZCJ4,20,1,7,0.0,0,0,28,1,7,1.0,asocial
01JW028WRQC1M51MDV0NPAZCJ4,20,2,7,0.0,0,0,26,1,7,1.0,asocial
01JW028WRQC1M51MDV0NPAZCJ4,20,3,7,0.0,0,0,20,2,7,1.0,asocial
01JW028WRQC1M51MDV0NPAZCJ4,20,4,7,0.0,0,0,6,1,7,1.0,asocial
01JW028WRQC1M51MDV0NPAZCJ4,20,5,7,0.0,0,0,6,1,7,1.0,asocial
01JW028WRQC1M51MDV0NPAZCJ4,20,6,7,0.0,0,0,25,1,7,1.0,asocial
01JW028WRQC1M51MDV0NPAZCJ4,20,7,7,0.0,18,1,29,2,7,1.0,asocial
01JW028WRQC1M51MDV0NPAZCJ4,20,8,7,0.0,0,0,21,3,7,1.0,asocial
01JW028WRQC1M51MDV0NPAZCJ4,20,9,7,0.0,0,0,9,1,7,1.0,asocial
01JW028WRQC1M51MDV0NPAZCJ4,21,0,7,0.0,0,0,6,1,7,0.0,asocial
01JW028WRQC1M51MDV0NPAZCJ4,21,1,7,0.0,0,0,31,2,7,0.0,asocial
01JW028WRQC1M51MDV0NPAZCJ4,21,2,7,0.0,0,0,27,1,7,0.0,asocial
01JW028WRQC1M51MDV0NPAZCJ4,21,3,7,0.0,0,0,21,2,7,0.0,asocial
01JW028WRQC1M51MDV0NPAZCJ4,21,4,7,0.0,0,0,6,1,7,0.0,asocial
01JW028WRQC1M51MDV0NPAZCJ4,21,5,7,0.0,0,0,6,1,7,0.0,asocial
01JW028WRQC1M51MDV0NPAZCJ4,21,6,7,0.0,0,0,25,1,7,0.0,asocial
01JW028WRQC1M51MDV0NPAZCJ4,21,7,7,0.0,18,2,30,3,7,0.0,asocial
01JW028WRQC1M51MDV0NPAZCJ4,21,8,7,0.0,0,0,22,3,7,0.0,asocial
01JW028WRQC1M51MDV0NPAZCJ4,21,9,7,0.0,0,0,10,1,7,0.0,asocial
01JW028WRQC1M51MDV0NPAZCJ4,22,0,7,1.0,0,0,7,1,7,0.0,asocial
01JW028WRQC1M51MDV0NPAZCJ4,22,1,7,1.0,0,0,32,2,7,0.0,asocial
01JW028WRQC1M51MDV0NPAZCJ4,22,2,7,1.0,0,0,28,1,7,0.0,asocial
01JW028WRQC1M51MDV0NPAZCJ4,22,3,7,1.0,0,0,22,2,7,0.0,asocial
01JW028WRQC1M51MDV0NPAZCJ4,22,4,7,1.0,0,0,7,1,7,0.0,asocial
01JW028WRQC1M51MDV0NPAZCJ4,22,5,7,1.0,0,0,6,1,7,0.0,asocial
01JW028WRQC1M51MDV0NPAZCJ4,22,6,7,1.0,0,0,25,1,7,0.0,asocial
01JW028WRQC1M51MDV0NPAZCJ4,22,7,7,1.0,18,3,31,4,7,0.0,asocial
01JW028WRQC1M51MDV0NPAZCJ4,22,8,7,1.0,0,0,23,3,7,0.0,asocial
01JW028WRQC1M51MDV0NPAZCJ4,22,9,7,1.0,0,0,12,1,7,0.0,asocial
01JW028WRQC1M51MDV0NPAZCJ4,23,0,7,0.0,0,0,7,1,7,1.0,asocial
01JW028WRQC1M51MDV0NPAZCJ4,23,1,7,0.0,0,0,33,2,7,1.0,asocial
01JW028WRQC1M51MDV0NPAZCJ4,23,2,7,0.0,0,0,30,1,7,1.0,asocial
01JW028WRQC1M51MDV0NPAZCJ4,23,3,7,0.0,0,0,23,2,7,1.0,asocial
01JW028WRQC1M51MDV0NPAZCJ4,23,4,7,0.0,0,0,7,1,7,1.0,asocial
01JW028WRQC1M51MDV0NPAZCJ4,23,5,7,0.0,0,0,7,1,7,1.0,asocial
01JW028WRQC1M51MDV0NPAZCJ4,23,6,7,0.0,0,0,25,1,7,1.0,asocial
01JW028WRQC1M51MDV0NPAZCJ4,23,7,7,0.0,19,3,32,4,7,1.0,asocial
01JW028WRQC1M51MDV0NPAZCJ4,23,8,7,0.0,0,0,24,4,7,1.0,asocial
01JW028WRQC1M51MDV0NPAZCJ4,23,9,7,0.0,0,0,14,1,7,1.0,asocial
01JW028WRQC1M51MDV0NPAZCJ4,24,0,7,1.0,0,0,7,1,7,0.0,asocial
01JW028WRQC1M51MDV0NPAZCJ4,24,1,7,1.0,0,0,34,2,7,0.0,asocial
01JW028WRQC1M51MDV0NPAZCJ4,24,2,7,1.0,0,0,31,1,7,0.0,asocial
01JW028WRQC1M51MDV0NPAZCJ4,24,3,7,1.0,0,0,23,3,7,0.0,asocial
01JW028WRQC1M51MDV0NPAZCJ4,24,4,7,1.0,0,0,7,1,7,0.0,asocial
01JW028WRQC1M51MDV0NPAZCJ4,24,5,7,1.0,0,0,8,1,7,0.0,asocial
01JW028WRQC1M51MDV0NPAZCJ4,24,6,7,1.0,0,0,26,1,7,0.0,asocial
01JW028WRQC1M51MDV0NPAZCJ4,24,7,7,1.0,19,4,32,5,7,0.0,asocial
01JW028WRQC1M51MDV0NPAZCJ4,24,8,7,1.0,0,0,26,4,7,0.0,asocial
01JW028WRQC1M51MDV0NPAZCJ4,24,9,7,1.0,0,0,16,1,7,0.0,asocial
01JW028WRQC1M51MDV0NPAZCJ4,25,0,7,1.0,0,0,7,1,7,1.0,asocial
01JW028WRQC1M51MDV0NPAZCJ4,25,1,7,1.0,0,0,35,2,7,1.0,asocial
01JW028WRQC1M51MDV0NPAZCJ4,25,2,7,1.0,0,0,33,1,7,1.0,asocial
01JW028WRQC1M51MDV0NPAZCJ4,25,3,7,1.0,0,0,24,3,7,1.0,asocial
01JW028WRQC1M51MDV0NPAZCJ4,25,4,7,1.0,0,0,7,1,7,1.0,asocial
01JW028WRQC1M51MDV0NPAZCJ4,25,5,7,1.0,0,0,10,1,7,1.0,asocial
01JW028WRQC1M51MDV0NPAZCJ4,25,6,7,1.0,0,0,26,1,7,1.0,asocial
01JW028WRQC1M51MDV0NPAZCJ4,25,7,7,1.0,20,4,34,5,7,1.0,asocial
01JW028WRQC1M51MDV0NPAZCJ4,25,8,7,1.0,0,0,27,4,7,1.0,asocial
01JW028WRQC1M51MDV0NPAZCJ4,25,9,7,1.0,0,0,17,1,7,1.0,asocial
01JW028WRQC1M51MDV0NPAZCJ4,26,0,7,1.0,0,0,7,1,7,1.0,asocial
01JW028WRQC1M51MDV0NPAZCJ4,26,1,7,1.0,0,0,37,2,7,1.0,asocial
01JW028WRQC1M51MDV0NPAZCJ4,26,2,7,1.0,0,0,35,1,7,1.0,asocial
01JW028WRQC1M51MDV0NPAZCJ4,26,3,7,1.0,0,0,26,3,7,1.0,asocial
01JW028WRQC1M51MDV0NPAZCJ4,26,4,7,1.0,0,0,7,1,7,1.0,asocial
01JW028WRQC1M51MDV0NPAZCJ4,26,5,7,1.0,0,0,11,1,7,1.0,asocial
01JW028WRQC1M51MDV0NPAZCJ4,26,6,7,1.0,0,0,26,1,7,1.0,asocial
01JW028WRQC1M51MDV0NPAZCJ4,26,7,7,1.0,21,4,35,5,7,1.0,asocial
01JW028WRQC1M51MDV0NPAZCJ4,26,8,7,1.0,0,0,28,4,7,1.0,asocial
01JW028WRQC1M51MDV0NPAZCJ4,26,9,7,1.0,0,0,18,1,7,1.0,asocial
01JW028WRQC1M51MDV0NPAZCJ4,27,0,7,1.0,0,0,7,2,7,1.0,asocial
01JW028WRQC1M51MDV0NPAZCJ4,27,1,7,1.0,0,0,39,2,7,1.0,asocial
01JW028WRQC1M51MDV0NPAZCJ4,27,2,7,1.0,0,0,36,1,7,1.0,asocial
01JW028WRQC1M51MDV0NPAZCJ4,27,3,7,1.0,0,0,27,3,7,1.0,asocial
01JW028WRQC1M51MDV0NPAZCJ4,27,4,7,1.0,0,0,7,1,7,1.0,asocial
01JW028WRQC1M51MDV0NPAZCJ4,27,5,7,1.0,0,0,12,2,7,1.0,asocial
01JW028WRQC1M51MDV0NPAZCJ4,27,6,7,1.0,0,0,26,1,7,1.0,asocial
01JW028WRQC1M51MDV0NPAZCJ4,27,7,7,1.0,22,4,36,5,7,1.0,asocial
01JW028WRQC1M51MDV0NPAZCJ4,27,8,7,1.0,0,0,29,4,7,1.0,asocial
01JW028WRQC1M51MDV0NPAZCJ4,27,9,7,1.0,0,0,19,1,7,1.0,asocial
01JW028WRQC1M51MDV0NPAZCJ4,28,0,7,1.0,0,0,7,2,7,1.0,asocial
01JW028WRQC1M51MDV0NPAZCJ4,28,1,7,1.0,0,0,40,2,7,1.0,asocial
01JW028WRQC1M51MDV0NPAZCJ4,28,2,7,1.0,0,0,38,2,7,1.0,asocial
01JW028WRQC1M51MDV0NPAZCJ4,28,3,7,1.0,0,0,28,4,7,1.0,asocial
01JW028WRQC1M51MDV0NPAZCJ4,28,4,7,1.0,0,0,7,1,7,1.0,asocial
01JW028WRQC1M51MDV0NPAZCJ4,28,5,7,1.0,0,0,13,2,7,1.0,asocial
01JW028WRQC1M51MDV0NPAZCJ4,28,6,7,1.0,0,0,26,1,7,1.0,asocial
01JW028WRQC1M51MDV0NPAZCJ4,28,7,7,1.0,23,4,37,5,7,1.0,asocial
01JW028WRQC1M51MDV0NPAZCJ4,28,8,7,1.0,0,0,30,4,7,1.0,asocial
01JW028WRQC1M51MDV0NPAZCJ4,28,9,7,1.0,0,0,20,1,7,1.0,asocial
01JW028WRQC1M51MDV0NPAZCJ4,29,0,7,1.0,0,0,7,2,7,1.0,asocial
01JW028WRQC1M51MDV0NPAZCJ4,29,1,7,1.0,0,0,42,2,7,1.0,asocial
01JW028WRQC1M51MDV0NPAZCJ4,29,2,7,1.0,0,0,40,2,7,1.0,asocial
01JW028WRQC1M51MDV0NPAZCJ4,29,3,7,1.0,0,0,29,4,7,1.0,asocial
01JW028WRQC1M51MDV0NPAZCJ4,29,4,7,1.0,0,0,7,1,7,1.0,asocial
01JW028WRQC1M51MDV0NPAZCJ4,29,5,7,1.0,0,0,13,2,7,1.0,asocial
01JW028WRQC1M51MDV0NPAZCJ4,29,6,7,1.0,0,0,26,1,7,1.0,asocial
01JW028WRQC1M51MDV0NPAZCJ4,29,7,7,1.0,24,4,39,5,7,1.0,asocial
01JW028WRQC1M51MDV0NPAZCJ4,29,8,7,1.0,0,0,32,4,7,1.0,asocial
01JW028WRQC1M51MDV0NPAZCJ4,29,9,7,1.0,0,0,21,1,7,1.0,asocial
01JW028WRQC1M51MDV0NPAZCJ4,30,0,7,1.0,0,0,7,2,7,1.0,asocial
01JW028WRQC1M51MDV0NPAZCJ4,30,1,7,1.0,0,0,44,2,7,1.0,asocial
01JW028WRQC1M51MDV0NPAZCJ4,30,2,7,1.0,0,0,42,2,7,1.0,asocial
01JW028WRQC1M51MDV0NPAZCJ4,30,3,7,1.0,0,0,31,4,7,1.0,asocial
01JW028WRQC1M51MDV0NPAZCJ4,30,4,7,1.0,0,0,7,1,7,1.0,asocial
01JW028WRQC1M51MDV0NPAZCJ4,30,5,7,1.0,0,0,13,2,7,1.0,asocial
01JW028WRQC1M51MDV0NPAZCJ4,30,6,7,1.0,0,0,27,1,7,1.0,asocial
01JW028WRQC1M51MDV0NPAZCJ4,30,7,7,1.0,25,4,40,5,7,1.0,asocial
01JW028WRQC1M51MDV0NPAZCJ4,30,8,7,1.0,0,0,33,4,7,1.0,asocial
01JW028WRQC1M51MDV0NPAZCJ4,30,9,7,1.0,0,0,22,1,7,1.0,asocial
01JW028WRQC1M51MDV0NPAZCJ4,31,0,7,1.0,0,0,7,2,7,1.0,asocial
01JW028WRQC1M51MDV0NPAZCJ4,31,1,7,1.0,0,0,45,2,7,1.0,asocial
01JW028WRQC1M51MDV0NPAZCJ4,31,2,7,1.0,0,0,44,3,7,1.0,asocial
01JW028WRQC1M51MDV0NPAZCJ4,31,3,7,1.0,0,0,32,4,7,1.0,asocial
01JW028WRQC1M51MDV0NPAZCJ4,31,4,7,1.0,0,0,7,1,7,1.0,asocial
01JW028WRQC1M51MDV0NPAZCJ4,31,5,7,1.0,0,0,14,2,7,1.0,asocial
01JW028WRQC1M51MDV0NPAZCJ4,31,6,7,1.0,0,0,28,1,7,1.0,asocial
01JW028WRQC1M51MDV0NPAZCJ4,31,7,7,1.0,26,4,41,5,7,1.0,asocial
01JW028WRQC1M51MDV0NPAZCJ4,31,8,7,1.0,0,0,34,4,7,1.0,asocial
01JW028WRQC1M51MDV0NPAZCJ4,31,9,7,1.0,0,0,23,1,7,1.0,asocial
01JW028WRQC1M51MDV0NPAZCJ4,32,0,7,1.0,0,0,7,2,7,1.0,asocial
01JW028WRQC1M51MDV0NPAZCJ4,32,1,7,1.0,0,0,46,2,7,1.0,asocial
01JW028WRQC1M51MDV0NPAZCJ4,32,2,7,1.0,0,0,47,3,7,1.0,asocial
01JW028WRQC1M51MDV0NPAZCJ4,32,3,7,1.0,0,0,34,4,7,1.0,asocial
01JW028WRQC1M51MDV0NPAZCJ4,32,4,7,1.0,0,0,8,1,7,1.0,asocial
01JW028WRQC1M51MDV0NPAZCJ4,32,5,7,1.0,0,0,14,2,7,1.0,asocial
01JW028WRQC1M51MDV0NPAZCJ4,32,6,7,1.0,0,0,28,1,7,1.0,asocial
01JW028WRQC1M51MDV0NPAZCJ4,32,7,7,1.0,27,4,42,5,7,1.0,asocial
01JW028WRQC1M51MDV0NPAZCJ4,32,8,7,1.0,0,0,35,4,7,1.0,asocial
01JW028WRQC1M51MDV0NPAZCJ4,32,9,7,1.0,0,0,24,1,7,1.0,asocial
01JW028WRQC1M51MDV0NPAZCJ4,33,0,7,1.0,0,0,8,2,7,1.0,asocial
01JW028WRQC1M51MDV0NPAZCJ4,33,1,7,1.0,0,0,47,2,7,1.0,asocial
01JW028WRQC1M51MDV0NPAZCJ4,33,2,7,1.0,0,0,49,3,7,1.0,asocial
01JW028WRQC1M51MDV0NPAZCJ4,33,3,7,1.0,0,0,35,4,7,1.0,asocial
01JW028WRQC1M51MDV0NPAZCJ4,33,4,7,1.0,0,0,8,1,7,1.0,asocial
01JW028WRQC1M51MDV0NPAZCJ4,33,5,7,1.0,0,0,15,2,7,1.0,asocial
01JW028WRQC1M51MDV0NPAZCJ4,33,6,7,1.0,0,0,28,1,7,1.0,asocial
01JW028WRQC1M51MDV0NPAZCJ4,33,7,7,1.0,28,4,44,5,7,1.0,asocial
01JW028WRQC1M51MDV0NPAZCJ4,33,8,7,1.0,0,0,35,5,7,1.0,asocial
01JW028WRQC1M51MDV0NPAZCJ4,33,9,7,1.0,0,0,25,1,7,1.0,asocial
01JW028WRQC1M51MDV0NPAZCJ4,34,0,7,1.0,0,0,8,2,7,1.0,asocial
01JW028WRQC1M51MDV0NPAZCJ4,34,1,7,1.0,0,0,48,2,7,1.0,asocial
01JW028WRQC1M51MDV0NPAZCJ4,34,2,7,1.0,0,0,50,4,7,1.0,asocial
01JW028WRQC1M51MDV0NPAZCJ4,34,3,7,1.0,0,0,35,5,7,1.0,asocial
01JW028WRQC1M51MDV0NPAZCJ4,34,4,7,1.0,0,0,8,1,7,1.0,asocial
01JW028WRQC1M51MDV0NPAZCJ4,34,5,7,1.0,0,0,16,2,7,1.0,asocial
01JW028WRQC1M51MDV0NPAZCJ4,34,6,7,1.0,0,0,30,1,7,1.0,asocial
01JW028WRQC1M51MDV0NPAZCJ4,34,7,7,1.0,29,4,45,5,7,1.0,asocial
01JW028WRQC1M51MDV0NPAZCJ4,34,8,7,1.0,0,0,36,5,7,1.0,asocial
01JW028WRQC1M51MDV0NPAZCJ4,34,9,7,1.0,0,0,26,1,7,1.0,asocial
01JW028WRQC1M51MDV0NPAZCJ4,35,0,7,1.0,0,0,8,2,7,1.0,asocial
01JW028WRQC1M51MDV0NPAZCJ4,35,1,7,1.0,0,0,50,2,7,1.0,asocial
01JW028WRQC1M51MDV0NPAZCJ4,35,2,7,1.0,0,0,52,4,7,1.0,asocial
01JW028WRQC1M51MDV0NPAZCJ4,35,3,7,1.0,0,0,36,5,7,1.0,asocial
01JW028WRQC1M51MDV0NPAZCJ4,35,4,7,1.0,0,0,8,2,7,1.0,asocial
01JW028WRQC1M51MDV0NPAZCJ4,35,5,7,1.0,0,0,16,2,7,1.0,asocial
01JW028WRQC1M51MDV0NPAZCJ4,35,6,7,1.0,0,0,30,1,7,1.0,asocial
01JW028WRQC1M51MDV0NPAZCJ4,35,7,7,1.0,30,4,47,5,7,1.0,asocial
01JW028WRQC1M51MDV0NPAZCJ4,35,8,7,1.0,0,0,37,5,7,1.0,asocial
01JW028WRQC1M51MDV0NPAZCJ4,35,9,7,1.0,0,0,27,1,7,1.0,asocial
01JW028WRQC1M51MDV0NPAZCJ4,36,0,7,0.0,0,0,8,2,7,1.0,asocial
01JW028WRQC1M51MDV0NPAZCJ4,36,1,7,0.0,0,0,53,2,7,1.0,asocial
01JW028WRQC1M51MDV0NPAZCJ4,36,2,7,0.0,0,0,52,5,7,1.0,asocial
01JW028WRQC1M51MDV0NPAZCJ4,36,3,7,0.0,0,0,37,5,7,1.0,asocial
01JW028WRQC1M51MDV0NPAZCJ4,36,4,7,0.0,0,0,8,2,7,1.0,asocial
01JW028WRQC1M51MDV0NPAZCJ4,36,5,7,0.0,0,0,16,2,7,1.0,asocial
01JW028WRQC1M51MDV0NPAZCJ4,36,6,7,0.0,0,0,31,1,7,1.0,asocial
01JW028WRQC1M51MDV0NPAZCJ4,36,7,7,0.0,31,4,49,5,7,1.0,asocial
01JW028WRQC1M51MDV0NPAZCJ4,36,8,7,0.0,0,0,38,5,7,1.0,asocial
01JW028WRQC1M51MDV0NPAZCJ4,36,9,7,0.0,0,0,28,1,7,1.0,asocial
01JW028WRQC1M51MDV0NPAZCJ4,37,0,7,1.0,0,0,8,2,7,0.0,asocial
01JW028WRQC1M51MDV0NPAZCJ4,37,1,7,1.0,0,0,54,2,7,0.0,asocial
01JW028WRQC1M51MDV0NPAZCJ4,37,2,7,1.0,0,0,53,5,7,0.0,asocial
01JW028WRQC1M51MDV0NPAZCJ4,37,3,7,1.0,0,0,39,5,7,0.0,asocial
01JW028WRQC1M51MDV0NPAZCJ4,37,4,7,1.0,0,0,8,3,7,0.0,asocial
01JW028WRQC1M51MDV0NPAZCJ4,37,5,7,1.0,0,0,16,2,7,0.0,asocial
01JW028WRQC1M51MDV0NPAZCJ4,37,6,7,1.0,0,0,31,1,7,0.0,asocial
01JW028WRQC1M51MDV0NPAZCJ4,37,7,7,1.0,31,5,50,6,7,0.0,asocial
01JW028WRQC1M51MDV0NPAZCJ4,37,8,7,1.0,0,0,39,5,7,0.0,asocial
01JW028WRQC1M51MDV0NPAZCJ4,37,9,7,1.0,0,0,30,1,7,0.0,asocial
01JW028WRQC1M51MDV0NPAZCJ4,38,0,7,1.0,0,0,8,3,7,1.0,asocial
01JW028WRQC1M51MDV0NPAZCJ4,38,1,7,1.0,0,0,56,2,7,1.0,asocial
01JW028WRQC1M51MDV0NPAZCJ4,38,2,7,1.0,0,0,54,5,7,1.0,asocial
01JW028WRQC1M51MDV0NPAZCJ4,38,3,7,1.0,0,0,40,5,7,1.0,asocial
01JW028WRQC1M51MDV0NPAZCJ4,38,4,7,1.0,0,0,8,3,7,1.0,asocial
01JW028WRQC1M51MDV0NPAZCJ4,38,5,7,1.0,0,0,16,2,7,1.0,asocial
01JW028WRQC1M51MDV0NPAZCJ4,38,6,7,1.0,0,0,31,1,7,1.0,asocial
01JW028WRQC1M51MDV0NPAZCJ4,38,7,7,1.0,32,5,52,6,7,1.0,asocial
01JW028WRQC1M51MDV0NPAZCJ4,38,8,7,1.0,0,0,40,5,7,1.0,asocial
01JW028WRQC1M51MDV0NPAZCJ4,38,9,7,1.0,0,0,32,1,7,1.0,asocial
01JW028WRQC1M51MDV0NPAZCJ4,39,0,7,1.0,0,0,9,3,7,1.0,asocial
01JW028WRQC1M51MDV0NPAZCJ4,39,1,7,1.0,0,0,58,2,7,1.0,asocial
01JW028WRQC1M51MDV0NPAZCJ4,39,2,7,1.0,0,0,55,5,7,1.0,asocial
01JW028WRQC1M51MDV0NPAZCJ4,39,3,7,1.0,0,0,41,5,7,1.0,asocial
01JW028WRQC1M51MDV0NPAZCJ4,39,4,7,1.0,0,0,8,3,7,1.0,asocial
01JW028WRQC1M51MDV0NPAZCJ4,39,5,7,1.0,0,0,16,2,7,1.0,asocial
01JW028WRQC1M51MDV0NPAZCJ4,39,6,7,1.0,0,0,32,1,7,1.0,asocial
01JW028WRQC1M51MDV0NPAZCJ4,39,7,7,1.0,33,5,53,6,7,1.0,asocial
01JW028WRQC1M51MDV0NPAZCJ4,39,8,7,1.0,0,0,42,5,7,1.0,asocial
01JW028WRQC1M51MDV0NPAZCJ4,39,9,7,1.0,0,0,33,1,7,1.0,asocial
01JW028WRQC1M51MDV0NPAZCJ4,40,0,7,1.0,0,0,9,3,7,1.0,asocial
01JW028WRQC1M51MDV0NPAZCJ4,40,1,7,1.0,0,0,59,2,7,1.0,asocial
01JW028WRQC1M51MDV0NPAZCJ4,40,2,7,1.0,0,0,57,5,7,1.0,asocial
01JW028WRQC1M51MDV0NPAZCJ4,40,3,7,1.0,0,0,43,5,7,1.0,asocial
01JW028WRQC1M51MDV0NPAZCJ4,40,4,7,1.0,0,0,8,3,7,1.0,asocial
01JW028WRQC1M51MDV0NPAZCJ4,40,5,7,1.0,0,0,16,2,7,1.0,asocial
01JW028WRQC1M51MDV0NPAZCJ4,40,6,7,1.0,0,0,34,1,7,1.0,asocial
01JW028WRQC1M51MDV0NPAZCJ4,40,7,7,1.0,34,5,54,6,7,1.0,asocial
01JW028WRQC1M51MDV0NPAZCJ4,40,8,7,1.0,0,0,43,5,7,1.0,asocial
01JW028WRQC1M51MDV0NPAZCJ4,40,9,7,1.0,0,0,33,2,7,1.0,asocial
01JW028WRQC1M51MDV0NPAZCJ4,41,0,7,1.0,0,0,9,3,7,1.0,asocial
01JW028WRQC1M51MDV0NPAZCJ4,41,1,7,1.0,0,0,60,2,7,1.0,asocial
01JW028WRQC1M51MDV0NPAZCJ4,41,2,7,1.0,0,0,59,5,7,1.0,asocial
01JW028WRQC1M51MDV0NPAZCJ4,41,3,7,1.0,0,0,45,5,7,1.0,asocial
01JW028WRQC1M51MDV0NPAZCJ4,41,4,7,1.0,0,0,8,3,7,1.0,asocial
01JW028WRQC1M51MDV0NPAZCJ4,41,5,7,1.0,0,0,16,2,7,1.0,asocial
01JW028WRQC1M51MDV0NPAZCJ4,41,6,7,1.0,0,0,34,1,7,1.0,asocial
01JW028WRQC1M51MDV0NPAZCJ4,41,7,7,1.0,35,5,55,6,7,1.0,asocial
01JW028WRQC1M51MDV0NPAZCJ4,41,8,7,1.0,0,0,45,5,7,1.0,asocial
01JW028WRQC1M51MDV0NPAZCJ4,41,9,7,1.0,0,0,35,2,7,1.0,asocial
01JW028WRQC1M51MDV0NPAZCJ4,42,0,7,1.0,0,0,10,3,7,1.0,asocial
01JW028WRQC1M51MDV0NPAZCJ4,42,1,7,1.0,0,0,61,2,7,1.0,asocial
01JW028WRQC1M51MDV0NPAZCJ4,42,2,7,1.0,0,0,60,5,7,1.0,asocial
01JW028WRQC1M51MDV0NPAZCJ4,42,3,7,1.0,0,0,46,5,7,1.0,asocial
01JW028WRQC1M51MDV0NPAZCJ4,42,4,7,1.0,0,0,9,3,7,1.0,asocial
01JW028WRQC1M51MDV0NPAZCJ4,42,5,7,1.0,0,0,16,2,7,1.0,asocial
01JW028WRQC1M51MDV0NPAZCJ4,42,6,7,1.0,0,0,36,1,7,1.0,asocial
01JW028WRQC1M51MDV0NPAZCJ4,42,7,7,1.0,36,5,56,6,7,1.0,asocial
01JW028WRQC1M51MDV0NPAZCJ4,42,8,7,1.0,0,0,47,5,7,1.0,asocial
01JW028WRQC1M51MDV0NPAZCJ4,42,9,7,1.0,0,0,35,2,7,1.0,asocial
01JW028WRQC1M51MDV0NPAZCJ4,43,0,7,1.0,0,0,10,3,7,1.0,asocial
01JW028WRQC1M51MDV0NPAZCJ4,43,1,7,1.0,0,0,62,2,7,1.0,asocial
01JW028WRQC1M51MDV0NPAZCJ4,43,2,7,1.0,0,0,61,5,7,1.0,asocial
01JW028WRQC1M51MDV0NPAZCJ4,43,3,7,1.0,0,0,49,5,7,1.0,asocial
01JW028WRQC1M51MDV0NPAZCJ4,43,4,7,1.0,0,0,9,3,7,1.0,asocial
01JW028WRQC1M51MDV0NPAZCJ4,43,5,7,1.0,0,0,16,2,7,1.0,asocial
01JW028WRQC1M51MDV0NPAZCJ4,43,6,7,1.0,0,0,37,1,7,1.0,asocial
01JW028WRQC1M51MDV0NPAZCJ4,43,7,7,1.0,37,5,57,6,7,1.0,asocial
01JW028WRQC1M51MDV0NPAZCJ4,43,8,7,1.0,0,0,49,6,7,1.0,asocial
01JW028WRQC1M51MDV0NPAZCJ4,43,9,7,1.0,0,0,35,2,7,1.0,asocial
01JW028WRQC1M51MDV0NPAZCJ4,44,0,7,1.0,0,0,10,3,7,1.0,asocial
01JW028WRQC1M51MDV0NPAZCJ4,44,1,7,1.0,0,0,63,2,7,1.0,asocial
01JW028WRQC1M51MDV0NPAZCJ4,44,2,7,1.0,0,0,62,5,7,1.0,asocial
01JW028WRQC1M51MDV0NPAZCJ4,44,3,7,1.0,0,0,50,5,7,1.0,asocial
01JW028WRQC1M51MDV0NPAZCJ4,44,4,7,1.0,0,0,9,3,7,1.0,asocial
01JW028WRQC1M51MDV0NPAZCJ4,44,5,7,1.0,0,0,16,2,7,1.0,asocial
01JW028WRQC1M51MDV0NPAZCJ4,44,6,7,1.0,0,0,38,1,7,1.0,asocial
01JW028WRQC1M51MDV0NPAZCJ4,44,7,7,1.0,38,5,59,6,7,1.0,asocial
01JW028WRQC1M51MDV0NPAZCJ4,44,8,7,1.0,0,0,51,7,7,1.0,asocial
01JW028WRQC1M51MDV0NPAZCJ4,44,9,7,1.0,0,0,36,2,7,1.0,asocial
01JW028WRQC1M51MDV0NPAZCJ4,45,0,7,1.0,0,0,10,3,7,1.0,asocial
01JW028WRQC1M51MDV0NPAZCJ4,45,1,7,1.0,0,0,65,2,7,1.0,asocial
01JW028WRQC1M51MDV0NPAZCJ4,45,2,7,1.0,0,0,63,5,7,1.0,asocial
01JW028WRQC1M51MDV0NPAZCJ4,45,3,7,1.0,0,0,51,5,7,1.0,asocial
01JW028WRQC1M51MDV0NPAZCJ4,45,4,7,1.0,0,0,9,3,7,1.0,asocial
01JW028WRQC1M51MDV0NPAZCJ4,45,5,7,1.0,0,0,16,2,7,1.0,asocial
01JW028WRQC1M51MDV0NPAZCJ4,45,6,7,1.0,0,0,39,1,7,1.0,asocial
01JW028WRQC1M51MDV0NPAZCJ4,45,7,7,1.0,39,5,61,6,7,1.0,asocial
01JW028WRQC1M51MDV0NPAZCJ4,45,8,7,1.0,0,0,54,7,7,1.0,asocial
01JW028WRQC1M51MDV0NPAZCJ4,45,9,7,1.0,0,0,36,2,7,1.0,asocial
01JW028WRQC1M51MDV0NPAZCJ4,46,0,7,1.0,0,0,10,3,7,1.0,asocial
01JW028WRQC1M51MDV0NPAZCJ4,46,1,7,1.0,0,0,66,2,7,1.0,asocial
01JW028WRQC1M51MDV0NPAZCJ4,46,2,7,1.0,0,0,65,6,7,1.0,asocial
01JW028WRQC1M51MDV0NPAZCJ4,46,3,7,1.0,0,0,51,6,7,1.0,asocial
01JW028WRQC1M51MDV0NPAZCJ4,46,4,7,1.0,0,0,9,3,7,1.0,asocial
01JW028WRQC1M51MDV0NPAZCJ4,46,5,7,1.0,0,0,16,2,7,1.0,asocial
01JW028WRQC1M51MDV0NPAZCJ4,46,6,7,1.0,0,0,39,1,7,1.0,asocial
01JW028WRQC1M51MDV0NPAZCJ4,46,7,7,1.0,40,5,62,6,7,1.0,asocial
01JW028WRQC1M51MDV0NPAZCJ4,46,8,7,1.0,0,0,57,7,7,1.0,asocial
01JW028WRQC1M51MDV0NPAZCJ4,46,9,7,1.0,0,0,37,2,7,1.0,asocial
01JW028WRQC1M51MDV0NPAZCJ4,47,0,7,1.0,0,0,10,3,7,1.0,asocial
01JW028WRQC1M51MDV0NPAZCJ4,47,1,7,1.0,0,0,67,2,7,1.0,asocial
01JW028WRQC1M51MDV0NPAZCJ4,47,2,7,1.0,0,0,66,6,7,1.0,asocial
01JW028WRQC1M51MDV0NPAZCJ4,47,3,7,1.0,0,0,52,6,7,1.0,asocial
01JW028WRQC1M51MDV0NPAZCJ4,47,4,7,1.0,0,0,9,3,7,1.0,asocial
01JW028WRQC1M51MDV0NPAZCJ4,47,5,7,1.0,0,0,16,2,7,1.0,asocial
01JW028WRQC1M51MDV0NPAZCJ4,47,6,7,1.0,0,0,41,1,7,1.0,asocial
01JW028WRQC1M51MDV0NPAZCJ4,47,7,7,1.0,41,5,64,6,7,1.0,asocial
01JW028WRQC1M51MDV0NPAZCJ4,47,8,7,1.0,0,0,60,7,7,1.0,asocial
01JW028WRQC1M51MDV0NPAZCJ4,47,9,7,1.0,0,0,37,2,7,1.0,asocial
01JW028WRQC1M51MDV0NPAZCJ4,48,0,7,0.0,0,0,11,3,7,1.0,asocial
01JW028WRQC1M51MDV0NPAZCJ4,48,1,7,0.0,0,0,68,2,7,1.0,asocial
01JW028WRQC1M51MDV0NPAZCJ4,48,2,7,0.0,0,0,67,6,7,1.0,asocial
01JW028WRQC1M51MDV0NPAZCJ4,48,3,7,0.0,0,0,54,6,7,1.0,asocial
01JW028WRQC1M51MDV0NPAZCJ4,48,4,7,0.0,0,0,9,3,7,1.0,asocial
01JW028WRQC1M51MDV0NPAZCJ4,48,5,7,0.0,0,0,16,2,7,1.0,asocial
01JW028WRQC1M51MDV0NPAZCJ4,48,6,7,0.0,0,0,42,1,7,1.0,asocial
01JW028WRQC1M51MDV0NPAZCJ4,48,7,7,0.0,42,5,65,6,7,1.0,asocial
01JW028WRQC1M51MDV0NPAZCJ4,48,8,7,0.0,0,0,63,7,7,1.0,asocial
01JW028WRQC1M51MDV0NPAZCJ4,48,9,7,0.0,0,0,37,2,7,1.0,asocial
01JW028WRQC1M51MDV0NPAZCJ4,49,0,7,1.0,0,0,11,3,7,0.0,asocial
01JW028WRQC1M51MDV0NPAZCJ4,49,1,7,1.0,0,0,69,2,7,0.0,asocial
01JW028WRQC1M51MDV0NPAZCJ4,49,2,7,1.0,0,0,69,6,7,0.0,asocial
01JW028WRQC1M51MDV0NPAZCJ4,49,3,7,1.0,0,0,56,6,7,0.0,asocial
01JW028WRQC1M51MDV0NPAZCJ4,49,4,7,1.0,0,0,9,3,7,0.0,asocial
01JW028WRQC1M51MDV0NPAZCJ4,49,5,7,1.0,0,0,16,3,7,0.0,asocial
01JW028WRQC1M51MDV0NPAZCJ4,49,6,7,1.0,0,0,43,1,7,0.0,asocial
01JW028WRQC1M51MDV0NPAZCJ4,49,7,7,1.0,42,6,65,7,7,0.0,asocial
01JW028WRQC1M51MDV0NPAZCJ4,49,8,7,1.0,0,0,65,7,7,0.0,asocial
01JW028WRQC1M51MDV0NPAZCJ4,49,9,7,1.0,0,0,37,2,7,0.0,asocial
01JW028WRQC1M51MDV0NPAZCJ4,50,0,7,1.0,0,0,11,3,7,1.0,asocial
01JW028WRQC1M51MDV0NPAZCJ4,50,1,7,1.0,0,0,69,3,7,1.0,asocial
01JW028WRQC1M51MDV0NPAZCJ4,50,2,7,1.0,0,0,70,6,7,1.0,asocial
01JW028WRQC1M51MDV0NPAZCJ4,50,3,7,1.0,0,0,58,6,7,1.0,asocial
01JW028WRQC1M51MDV0NPAZCJ4,50,4,7,1.0,0,0,10,3,7,1.0,asocial
01JW028WRQC1M51MDV0NPAZCJ4,50,5,7,1.0,0,0,16,3,7,1.0,asocial
01JW028WRQC1M51MDV0NPAZCJ4,50,6,7,1.0,0,0,43,2,7,1.0,asocial
01JW028WRQC1M51MDV0NPAZCJ4,50,7,7,1.0,43,6,66,7,7,1.0,asocial
01JW028WRQC1M51MDV0NPAZCJ4,50,8,7,1.0,0,0,68,7,7,1.0,asocial
01JW028WRQC1M51MDV0NPAZCJ4,50,9,7,1.0,0,0,37,2,7,1.0,asocial
01JW028WRQC1M51MDV0NPAZCJ4,51,0,7,0.0,0,0,12,3,7,1.0,asocial
01JW028WRQC1M51MDV0NPAZCJ4,51,1,7,0.0,0,0,70,3,7,1.0,asocial
01JW028WRQC1M51MDV0NPAZCJ4,51,2,7,0.0,0,0,71,6,7,1.0,asocial
01JW028WRQC1M51MDV0NPAZCJ4,51,3,7,0.0,0,0,60,6,7,1.0,asocial
01JW028WRQC1M51MDV0NPAZCJ4,51,4,7,0.0,0,0,10,3,7,1.0,asocial
01JW028WRQC1M51MDV0NPAZCJ4,51,5,7,0.0,0,0,16,3,7,1.0,asocial
01JW028WRQC1M51MDV0NPAZCJ4,51,6,7,0.0,0,0,43,2,7,1.0,asocial
01JW028WRQC1M51MDV0NPAZCJ4,51,7,7,0.0,44,6,68,7,7,1.0,asocial
01JW028WRQC1M51MDV0NPAZCJ4,51,8,7,0.0,0,0,70,7,7,1.0,asocial
01JW028WRQC1M51MDV0NPAZCJ4,51,9,7,0.0,0,0,38,2,7,1.0,asocial
01JW029XNR37MHA24H9XBWVRSY,1,0,9,1.0,0,0,0,0,-1,,asocial
01JW029XNR37MHA24H9XBWVRSY,1,1,9,1.0,0,0,0,0,-1,,asocial
01JW029XNR37MHA24H9XBWVRSY,1,2,9,1.0,0,0,0,0,-1,,asocial
01JW029XNR37MHA24H9XBWVRSY,1,3,9,1.0,0,0,0,0,-1,,asocial
01JW029XNR37MHA24H9XBWVRSY,1,4,9,1.0,0,0,0,0,-1,,asocial
01JW029XNR37MHA24H9XBWVRSY,1,5,9,1.0,0,0,0,0,-1,,asocial
01JW029XNR37MHA24H9XBWVRSY,1,6,9,1.0,0,0,0,0,-1,,asocial
01JW029XNR37MHA24H9XBWVRSY,1,7,9,1.0,0,0,0,0,-1,,asocial
01JW029XNR37MHA24H9XBWVRSY,1,8,9,1.0,0,0,0,0,-1,,asocial
01JW029XNR37MHA24H9XBWVRSY,1,9,9,1.0,0,0,0,0,-1,,asocial
01JW029XNR37MHA24H9XBWVRSY,2,0,9,1.0,0,0,1,0,9,1.0,asocial
01JW029XNR37MHA24H9XBWVRSY,2,1,9,1.0,0,0,1,0,9,1.0,asocial
01JW029XNR37MHA24H9XBWVRSY,2,2,9,1.0,0,0,1,0,9,1.0,asocial
01JW029XNR37MHA24H9XBWVRSY,2,3,9,1.0,0,0,0,1,9,1.0,asocial
01JW029XNR37MHA24H9XBWVRSY,2,4,9,1.0,0,0,1,0,9,1.0,asocial
01JW029XNR37MHA24H9XBWVRSY,2,5,9,1.0,0,0,0,1,9,1.0,asocial
01JW029XNR37MHA24H9XBWVRSY,2,6,9,1.0,0,0,1,0,9,1.0,asocial
01JW029XNR37MHA24H9XBWVRSY,2,7,9,1.0,0,0,1,0,9,1.0,asocial
01JW029XNR37MHA24H9XBWVRSY,2,8,9,1.0,0,0,1,0,9,1.0,asocial
01JW029XNR37MHA24H9XBWVRSY,2,9,9,1.0,1,0,1,0,9,1.0,asocial
01JW029XNR37MHA24H9XBWVRSY,3,0,6,1.0,0,0,1,1,9,1.0,asocial
01JW029XNR37MHA24H9XBWVRSY,3,1,6,1.0,0,0,2,0,9,1.0,asocial
01JW029XNR37MHA24H9XBWVRSY,3,2,6,1.0,0,0,2,0,9,1.0,asocial
01JW029XNR37MHA24H9XBWVRSY,3,3,6,1.0,0,0,1,1,9,1.0,asocial
01JW029XNR37MHA24H9XBWVRSY,3,4,6,1.0,0,0,2,0,9,1.0,asocial
01JW029XNR37MHA24H9XBWVRSY,3,5,6,1.0,0,0,1,1,9,1.0,asocial
01JW029XNR37MHA24H9XBWVRSY,3,6,6,1.0,0,0,2,0,9,1.0,asocial
01JW029XNR37MHA24H9XBWVRSY,3,7,6,1.0,0,0,2,0,9,1.0,asocial
01JW029XNR37MHA24H9XBWVRSY,3,8,6,1.0,0,0,2,0,9,1.0,asocial
01JW029XNR37MHA24H9XBWVRSY,3,9,6,1.0,2,0,2,0,9,1.0,asocial
01JW029XNR37MHA24H9XBWVRSY,4,0,6,1.0,0,0,1,1,6,1.0,asocial
01JW029XNR37MHA24H9XBWVRSY,4,1,6,1.0,0,0,3,0,6,1.0,asocial
01JW029XNR37MHA24H9XBWVRSY,4,2,6,1.0,0,0,3,0,6,1.0,asocial
01JW029XNR37MHA24H9XBWVRSY,4,3,6,1.0,0,0,2,2,6,1.0,asocial
01JW029XNR37MHA24H9XBWVRSY,4,4,6,1.0,0,0,2,0,6,1.0,asocial
01JW029XNR37MHA24H9XBWVRSY,4,5,6,1.0,0,0,1,1,6,1.0,asocial
01JW029XNR37MHA24H9XBWVRSY,4,6,6,1.0,1,0,4,0,6,1.0,asocial
01JW029XNR37MHA24H9XBWVRSY,4,7,6,1.0,0,0,5,0,6,1.0,asocial
01JW029XNR37MHA24H9XBWVRSY,4,8,6,1.0,0,0,3,0,6,1.0,asocial
01JW029XNR37MHA24H9XBWVRSY,4,9,6,1.0,2,0,2,0,6,1.0,asocial
01JW029XNR37MHA24H9XBWVRSY,5,0,6,1.0,0,0,1,1,6,1.0,asocial
01JW029XNR37MHA24H9XBWVRSY,5,1,6,1.0,0,0,4,1,6,1.0,asocial
01JW029XNR37MHA24H9XBWVRSY,5,2,6,1.0,0,0,4,0,6,1.0,asocial
01JW029XNR37MHA24H9XBWVRSY,5,3,6,1.0,0,0,3,2,6,1.0,asocial
01JW029XNR37MHA24H9XBWVRSY,5,4,6,1.0,0,0,2,0,6,1.0,asocial
01JW029XNR37MHA24H9XBWVRSY,5,5,6,1.0,0,0,1,1,6,1.0,asocial
01JW029XNR37MHA24H9XBWVRSY,5,6,6,1.0,2,0,6,0,6,1.0,asocial
01JW029XNR37MHA24H9XBWVRSY,5,7,6,1.0,0,0,8,0,6,1.0,asocial
01JW029XNR37MHA24H9XBWVRSY,5,8,6,1.0,0,0,4,0,6,1.0,asocial
01JW029XNR37MHA24H9XBWVRSY,5,9,6,1.0,2,0,2,0,6,1.0,asocial
01JW029XNR37MHA24H9XBWVRSY,6,0,1,1.0,0,0,1,1,6,1.0,asocial
01JW029XNR37MHA24H9XBWVRSY,6,1,1,1.0,0,0,5,1,6,1.0,asocial
01JW029XNR37MHA24H9XBWVRSY,6,2,1,1.0,0,0,5,0,6,1.0,asocial
01JW029XNR37MHA24H9XBWVRSY,6,3,1,1.0,0,0,4,2,6,1.0,asocial
01JW029XNR37MHA24H9XBWVRSY,6,4,1,1.0,0,0,2,1,6,1.0,asocial
01JW029XNR37MHA24H9XBWVRSY,6,5,1,1.0,0,0,1,1,6,1.0,asocial
01JW029XNR37MHA24H9XBWVRSY,6,6,1,1.0,3,0,8,0,6,1.0,asocial
01JW029XNR37MHA24H9XBWVRSY,6,7,1,1.0,0,0,10,0,6,1.0,asocial
01JW029XNR37MHA24H9XBWVRSY,6,8,1,1.0,0,0,5,0,6,1.0,asocial
01JW029XNR37MHA24H9XBWVRSY,6,9,1,1.0,2,0,3,0,6,1.0,asocial
01JW029XNR37MHA24H9XBWVRSY,7,0,1,1.0,0,0,1,1,1,1.0,asocial
01JW029XNR37MHA24H9XBWVRSY,7,1,1,1.0,1,0,8,1,1,1.0,asocial
01JW029XNR37MHA24H9XBWVRSY,7,2,1,1.0,0,0,7,0,1,1.0,asocial
01JW029XNR37MHA24H9XBWVRSY,7,3,1,1.0,0,0,5,2,1,1.0,asocial
01JW029XNR37MHA24H9XBWVRSY,7,4,1,1.0,0,0,2,1,1,1.0,asocial
01JW029XNR37MHA24H9XBWVRSY,7,5,1,1.0,0,0,1,1,1,1.0,asocial
01JW029XNR37MHA24H9XBWVRSY,7,6,1,1.0,3,0,8,0,1,1.0,asocial
01JW029XNR37MHA24H9XBWVRSY,7,7,1,1.0,0,0,12,0,1,1.0,asocial
01JW029XNR37MHA24H9XBWVRSY,7,8,1,1.0,0,0,6,0,1,1.0,asocial
01JW029XNR37MHA24H9XBWVRSY,7,9,1,1.0,2,0,4,0,1,1.0,asocial
01JW029XNR37MHA24H9XBWVRSY,8,0,1,1.0,0,0,1,1,1,1.0,asocial
01JW029XNR37MHA24H9XBWVRSY,8,1,1,1.0,2,0,10,1,1,1.0,asocial
01JW029XNR37MHA24H9XBWVRSY,8,2,1,1.0,0,0,8,0,1,1.0,asocial
01JW029XNR37MHA24H9XBWVRSY,8,3,1,1.0,0,0,6,2,1,1.0,asocial
01JW029XNR37MHA24H9XBWVRSY,8,4,1,1.0,0,0,2,1,1,1.0,asocial
01JW029XNR37MHA24H9XBWVRSY,8,5,1,1.0,0,0,2,1,1,1.0,asocial
01JW029XNR37MHA24H9XBWVRSY,8,6,1,1.0,3,0,9,0,1,1.0,asocial
01JW029XNR37MHA24H9XBWVRSY,8,7,1,1.0,0,0,15,0,1,1.0,asocial
01JW029XNR37MHA24H9XBWVRSY,8,8,1,1.0,0,0,7,0,1,1.0,asocial
01JW029XNR37MHA24H9XBWVRSY,8,9,1,1.0,2,0,4,0,1,1.0,asocial
01JW029XNR37MHA24H9XBWVRSY,9,0,9,1.0,0,0,2,1,1,1.0,asocial
01JW029XNR37MHA24H9XBWVRSY,9,1,9,1.0,3,0,13,1,1,1.0,asocial
01JW029XNR37MHA24H9XBWVRSY,9,2,9,1.0,0,0,9,0,1,1.0,asocial
01JW029XNR37MHA24H9XBWVRSY,9,3,9,1.0,0,0,7,2,1,1.0,asocial
01JW029XNR37MHA24H9XBWVRSY,9,4,9,1.0,0,0,2,1,1,1.0,asocial
01JW029XNR37MHA24H9XBWVRSY,9,5,9,1.0,0,0,2,1,1,1.0,asocial
01JW029XNR37MHA24H9XBWVRSY,9,6,9,1.0,3,0,10,0,1,1.0,asocial
01JW029XNR37MHA24H9XBWVRSY,9,7,9,1.0,0,0,17,0,1,1.0,asocial
01JW029XNR37MHA24H9XBWVRSY,9,8,9,1.0,0,0,8,0,1,1.0,asocial
01JW029XNR37MHA24H9XBWVRSY,9,9,9,1.0,2,0,4,0,1,1.0,asocial
01JW029XNR37MHA24H9XBWVRSY,10,0,2,1.0,0,0,3,1,9,1.0,asocial
01JW029XNR37MHA24H9XBWVRSY,10,1,2,1.0,3,0,15,1,9,1.0,asocial
01JW029XNR37MHA24H9XBWVRSY,10,2,2,1.0,0,0,10,0,9,1.0,asocial
01JW029XNR37MHA24H9XBWVRSY,10,3,2,1.0,0,0,9,2,9,1.0,asocial
01JW029XNR37MHA24H9XBWVRSY,10,4,2,1.0,0,0,2,1,9,1.0,asocial
01JW029XNR37MHA24H9XBWVRSY,10,5,2,1.0,0,0,2,1,9,1.0,asocial
01JW029XNR37MHA24H9XBWVRSY,10,6,2,1.0,3,0,11,0,9,1.0,asocial
01JW029XNR37MHA24H9XBWVRSY,10,7,2,1.0,0,0,18,0,9,1.0,asocial
01JW029XNR37MHA24H9XBWVRSY,10,8,2,1.0,0,0,9,0,9,1.0,asocial
01JW029XNR37MHA24H9XBWVRSY,10,9,2,1.0,3,0,5,0,9,1.0,asocial
01JW029XNR37MHA24H9XBWVRSY,11,0,2,1.0,0,0,3,1,2,1.0,asocial
01JW029XNR37MHA24H9XBWVRSY,11,1,2,1.0,3,0,17,1,2,1.0,asocial
01JW029XNR37MHA24H9XBWVRSY,11,2,2,1.0,1,0,12,0,2,1.0,asocial
01JW029XNR37MHA24H9XBWVRSY,11,3,2,1.0,0,0,10,2,2,1.0,asocial
01JW029XNR37MHA24H9XBWVRSY,11,4,2,1.0,0,0,2,1,2,1.0,asocial
01JW029XNR37MHA24H9XBWVRSY,11,5,2,1.0,0,0,3,1,2,1.0,asocial
01JW029XNR37MHA24H9XBWVRSY,11,6,2,1.0,3,0,12,0,2,1.0,asocial
01JW029XNR37MHA24H9XBWVRSY,11,7,2,1.0,0,0,19,1,2,1.0,asocial
01JW029XNR37MHA24H9XBWVRSY,11,8,2,1.0,0,0,10,0,2,1.0,asocial
01JW029XNR37MHA24H9XBWVRSY,11,9,2,1.0,3,0,5,0,2,1.0,asocial
01JW029XNR37MHA24H9XBWVRSY,12,0,2,1.0,0,0,3,1,2,1.0,asocial
01JW029XNR37MHA24H9XBWVRSY,12,1,2,1.0,3,0,18,1,2,1.0,asocial
01JW029XNR37MHA24H9XBWVRSY,12,2,2,1.0,2,0,14,0,2,1.0,asocial
01JW029XNR37MHA24H9XBWVRSY,12,3,2,1.0,0,0,11,2,2,1.0,asocial
01JW029XNR37MHA24H9XBWVRSY,12,4,2,1.0,0,0,2,1,2,1.0,asocial
01JW029XNR37MHA24H9XBWVRSY,12,5,2,1.0,0,0,3,1,2,1.0,asocial
01JW029XNR37MHA24H9XBWVRSY,12,6,2,1.0,3,0,13,0,2,1.0,asocial
01JW029XNR37MHA24H9XBWVRSY,12,7,2,1.0,0,0,20,1,2,1.0,asocial
01JW029XNR37MHA24H9XBWVRSY,12,8,2,1.0,0,0,11,1,2,1.0,asocial
01JW029XNR37MHA24H9XBWVRSY,12,9,2,1.0,3,0,6,1,2,1.0,asocial
01JW029XNR37MHA24H9XBWVRSY,13,0,2,1.0,0,0,4,1,2,1.0,asocial
01JW029XNR37MHA24H9XBWVRSY,13,1,2,1.0,3,0,19,1,2,1.0,asocial
01JW029XNR37MHA24H9XBWVRSY,13,2,2,1.0,3,0,16,0,2,1.0,asocial
01JW029XNR37MHA24H9XBWVRSY,13,3,2,1.0,0,0,12,2,2,1.0,asocial
01JW029XNR37MHA24H9XBWVRSY,13,4,2,1.0,0,0,2,1,2,1.0,asocial
01JW029XNR37MHA24H9XBWVRSY,13,5,2,1.0,0,0,4,1,2,1.0,asocial
01JW029XNR37MHA24H9XBWVRSY,13,6,2,1.0,3,0,14,0,2,1.0,asocial
01JW029XNR37MHA24H9XBWVRSY,13,7,2,1.0,0,0,21,1,2,1.0,asocial
01JW029XNR37MHA24H9XBWVRSY,13,8,2,1.0,0,0,12,1,2,1.0,asocial
01JW029XNR37MHA24H9XBWVRSY,13,9,2,1.0,3,0,7,1,2,1.0,asocial
01JW029XNR37MHA24H9XBWVRSY,14,0,2,1.0,0,0,5,1,2,1.0,asocial
01JW029XNR37MHA24H9XBWVRSY,14,1,2,1.0,3,0,20,1,2,1.0,asocial
01JW029XNR37MHA24H9XBWVRSY,14,2,2,1.0,4,0,19,0,2,1.0,asocial
01JW029XNR37MHA24H9XBWVRSY,14,3,2,1.0,0,0,13,2,2,1.0,asocial
01JW029XNR37MHA24H9XBWVRSY,14,4,2,1.0,0,0,2,1,2,1.0,asocial
01JW029XNR37MHA24H9XBWVRSY,14,5,2,1.0,0,0,5,1,2,1.0,asocial
01JW029XNR37MHA24H9XBWVRSY,14,6,2,1.0,3,0,15,0,2,1.0,asocial
01JW029XNR37MHA24H9XBWVRSY,14,7,2,1.0,0,0,22,1,2,1.0,asocial
01JW029XNR37MHA24H9XBWVRSY,14,8,2,1.0,0,0,13,1,2,1.0,asocial
01JW029XNR37MHA24H9XBWVRSY,14,9,2,1.0,3,0,7,1,2,1.0,asocial
01JW029XNR37MHA24H9XBWVRSY,15,0,2,0.0,0,0,5,1,2,1.0,asocial
01JW029XNR37MHA24H9XBWVRSY,15,1,2,0.0,3,0,21,1,2,1.0,asocial
01JW029XNR37MHA24H9XBWVRSY,15,2,2,0.0,5,0,21,0,2,1.0,asocial
01JW029XNR37MHA24H9XBWVRSY,15,3,2,0.0,0,0,14,2,2,1.0,asocial
01JW029XNR37MHA24H9XBWVRSY,15,4,2,0.0,0,0,3,1,2,1.0,asocial
01JW029XNR37MHA24H9XBWVRSY,15,5,2,0.0,0,0,5,1,2,1.0,asocial
01JW029XNR37MHA24H9XBWVRSY,15,6,2,0.0,3,0,17,0,2,1.0,asocial
01JW029XNR37MHA24H9XBWVRSY,15,7,2,0.0,0,0,23,1,2,1.0,asocial
01JW029XNR37MHA24H9XBWVRSY,15,8,2,0.0,0,0,14,2,2,1.0,asocial
01JW029XNR37MHA24H9XBWVRSY,15,9,2,0.0,3,0,7,1,2,1.0,asocial
01JW029XNR37MHA24H9XBWVRSY,16,0,1,1.0,0,0,5,1,2,0.0,asocial
01JW029XNR37MHA24H9XBWVRSY,16,1,1,1.0,3,0,22,1,2,0.0,asocial
01JW029XNR37MHA24H9XBWVRSY,16,2,1,1.0,5,1,22,1,2,0.0,asocial
01JW029XNR37MHA24H9XBWVRSY,16,3,1,1.0,0,0,15,2,2,0.0,asocial
01JW029XNR37MHA24H9XBWVRSY,16,4,1,1.0,0,0,4,1,2,0.0,asocial
01JW029XNR37MHA24H9XBWVRSY,16,5,1,1.0,0,0,5,1,2,0.0,asocial
01JW029XNR37MHA24H9XBWVRSY,16,6,1,1.0,3,0,19,0,2,0.0,asocial
01JW029XNR37MHA24H9XBWVRSY,16,7,1,1.0,0,0,24,1,2,0.0,asocial
01JW029XNR37MHA24H9XBWVRSY,16,8,1,1.0,0,0,16,2,2,0.0,asocial
01JW029XNR37MHA24H9XBWVRSY,16,9,1,1.0,3,0,7,1,2,0.0,asocial
01JW029XNR37MHA24H9XBWVRSY,17,0,9,1.0,0,0,5,1,1,1.0,asocial
01JW029XNR37MHA24H9XBWVRSY,17,1,9,1.0,4,0,25,1,1,1.0,asocial
01JW029XNR37MHA24H9XBWVRSY,17,2,9,1.0,5,1,23,1,1,1.0,asocial
01JW029XNR37MHA24H9XBWVRSY,17,3,9,1.0,0,0,16,2,1,1.0,asocial
01JW029XNR37MHA24H9XBWVRSY,17,4,9,1.0,0,0,4,1,1,1.0,asocial
01JW029XNR37MHA24H9XBWVRSY,17,5,9,1.0,0,0,5,1,1,1.0,asocial
01JW029XNR37MHA24H9XBWVRSY,17,6,9,1.0,3,0,21,0,1,1.0,asocial
01JW029XNR37MHA24H9XBWVRSY,17,7,9,1.0,0,0,24,2,1,1.0,asocial
01JW029XNR37MHA24H9XBWVRSY,17,8,9,1.0,0,0,18,2,1,1.0,asocial
01JW029XNR37MHA24H9XBWVRSY,17,9,9,1.0,3,0,7,1,1,1.0,asocial
01JW029XNR37MHA24H9XBWVRSY,18,0,6,1.0,0,0,5,1,9,1.0,asocial
01JW029XNR37MHA24H9XBWVRSY,18,1,6,1.0,4,0,26,1,9,1.0,asocial
01JW029XNR37MHA24H9XBWVRSY,18,2,6,1.0,5,1,24,1,9,1.0,asocial
01JW029XNR37MHA24H9XBWVRSY,18,3,6,1.0,0,0,17,2,9,1.0,asocial
01JW029XNR37MHA24H9XBWVRSY,18,4,6,1.0,0,0,5,1,9,1.0,asocial
01JW029XNR37MHA24H9XBWVRSY,18,5,6,1.0,0,0,6,1,9,1.0,asocial
01JW029XNR37MHA24H9XBWVRSY,18,6,6,1.0,3,0,21,1,9,1.0,asocial
01JW029XNR37MHA24H9XBWVRSY,18,7,6,1.0,0,0,26,2,9,1.0,asocial
01JW029XNR37MHA24H9XBWVRSY,18,8,6,1.0,0,0,18,3,9,1.0,asocial
01JW029XNR37MHA24H9XBWVRSY,18,9,6,1.0,4,0,8,1,9,1.0,asocial
01JW029XNR37MHA24H9XBWVRSY,19,0,6,1.0,0,0,6,1,6,1.0,asocial
01JW029XNR37MHA24H9XBWVRSY,19,1,6,1.0,4,0,27,1,6,1.0,asocial
01JW029XNR37MHA24H9XBWVRSY,19,2,6,1.0,5,1,25,1,6,1.0,asocial
01JW029XNR37MHA24H9XBWVRSY,19,3,6,1.0,0,0,19,2,6,1.0,asocial
01JW029XNR37MHA24H9XBWVRSY,19,4,6,1.0,0,0,5,1,6,1.0,asocial
01JW029XNR37MHA24H9XBWVRSY,19,5,6,1.0,0,0,6,1,6,1.0,asocial
01JW029XNR37MHA24H9XBWVRSY,19,6,6,1.0,4,0,24,1,6,1.0,asocial
01JW029XNR37MHA24H9XBWVRSY,19,7,6,1.0,0,0,27,2,6,1.0,asocial
01JW029XNR37MHA24H9XBWVRSY,19,8,6,1.0,0,0,19,3,6,1.0,asocial
01JW029XNR37MHA24H9XBWVRSY,19,9,6,1.0,4,0,8,1,6,1.0,asocial
01JW029XNR37MHA24H9XBWVRSY,20,0,1,1.0,0,0,6,1,6,1.0,asocial
01JW029XNR37MHA24H9XBWVRSY,20,1,1,1.0,4,0,28,1,6,1.0,asocial
01JW029XNR37MHA24H9XBWVRSY,20,2,1,1.0,5,1,26,1,6,1.0,asocial
01JW029XNR37MHA24H9XBWVRSY,20,3,1,1.0,0,0,20,2,6,1.0,asocial
01JW029XNR37MHA24H9XBWVRSY,20,4,1,1.0,0,0,6,1,6,1.0,asocial
01JW029XNR37MHA24H9XBWVRSY,20,5,1,1.0,0,0,6,1,6,1.0,asocial
01JW029XNR37MHA24H9XBWVRSY,20,6,1,1.0,5,0,25,1,6,1.0,asocial
01JW029XNR37MHA24H9XBWVRSY,20,7,1,1.0,0,0,29,2,6,1.0,asocial
01JW029XNR37MHA24H9XBWVRSY,20,8,1,1.0,0,0,21,3,6,1.0,asocial
01JW029XNR37MHA24H9XBWVRSY,20,9,1,1.0,4,0,9,1,6,1.0,asocial
01JW029XNR37MHA24H9XBWVRSY,21,0,9,1.0,0,0,6,1,1,1.0,asocial
01JW029XNR37MHA24H9XBWVRSY,21,1,9,1.0,5,0,31,2,1,1.0,asocial
01JW029XNR37MHA24H9XBWVRSY,21,2,9,1.0,5,1,27,1,1,1.0,asocial
01JW029XNR37MHA24H9XBWVRSY,21,3,9,1.0,0,0,21,2,1,1.0,asocial
01JW029XNR37MHA24H9XBWVRSY,21,4,9,1.0,0,0,6,1,1,1.0,asocial
01JW029XNR37MHA24H9XBWVRSY,21,5,9,1.0,0,0,6,1,1,1.0,asocial
01JW029XNR37MHA24H9XBWVRSY,21,6,9,1.0,5,0,25,1,1,1.0,asocial
01JW029XNR37MHA24H9XBWVRSY,21,7,9,1.0,0,0,30,3,1,1.0,asocial
01JW029XNR37MHA24H9XBWVRSY,21,8,9,1.0,0,0,22,3,1,1.0,asocial
01JW029XNR37MHA24H9XBWVRSY,21,9,9,1.0,4,0,10,1,1,1.0,asocial
01JW029XNR37MHA24H9XBWVRSY,22,0,5,1.0,0,0,7,1,9,1.0,asocial
01JW029XNR37MHA24H9XBWVRSY,22,1,5,1.0,5,0,32,2,9,1.0,asocial
01JW029XNR37MHA24H9XBWVRSY,22,2,5,1.0,5,1,28,1,9,1.0,asocial
01JW029XNR37MHA24H9XBWVRSY,22,3,5,1.0,0,0,22,2,9,1.0,asocial
01JW029XNR37MHA24H9XBWVRSY,22,4,5,1.0,0,0,7,1,9,1.0,asocial
01JW029XNR37MHA24H9XBWVRSY,22,5,5,1.0,0,0,6,1,9,1.0,asocial
01JW029XNR37MHA24H9XBWVRSY,22,6,5,1.0,5,0,25,1,9,1.0,asocial
01JW029XNR37MHA24H9XBWVRSY,22,7,5,1.0,0,0,31,4,9,1.0,asocial
01JW029XNR37MHA24H9XBWVRSY,22,8,5,1.0,0,0,23,3,9,1.0,asocial
01JW029XNR37MHA24H9XBWVRSY,22,9,5,1.0,5,0,12,1,9,1.0,asocial
01JW029XNR37MHA24H9XBWVRSY,23,0,5,1.0,0,0,7,1,5,1.0,asocial
01JW029XNR37MHA24H9XBWVRSY,23,1,5,1.0,5,0,33,2,5,1.0,asocial
01JW029XNR37MHA24H9XBWVRSY,23,2,5,1.0,5,1,30,1,5,1.0,asocial
01JW029XNR37MHA24H9XBWVRSY,23,3,5,1.0,0,0,23,2,5,1.0,asocial
01JW029XNR37MHA24H9XBWVRSY,23,4,5,1.0,0,0,7,1,5,1.0,asocial
01JW029XNR37MHA24H9XBWVRSY,23,5,5,1.0,1,0,7,1,5,1.0,asocial
01JW029XNR37MHA24H9XBWVRSY,23,6,5,1.0,5,0,25,1,5,1.0,asocial
01JW029XNR37MHA24H9XBWVRSY,23,7,5,1.0,0,0,32,4,5,1.0,asocial
01JW029XNR37MHA24H9XBWVRSY,23,8,5,1.0,0,0,24,4,5,1.0,asocial
01JW029XNR37MHA24H9XBWVRSY,23,9,5,1.0,5,0,14,1,5,1.0,asocial
01JW029XNR37MHA24H9XBWVRSY,24,0,5,1.0,0,0,7,1,5,1.0,asocial
01JW029XNR37MHA24H9XBWVRSY,24,1,5,1.0,5,0,34,2,5,1.0,asocial
01JW029XNR37MHA24H9XBWVRSY,24,2,5,1.0,5,1,31,1,5,1.0,asocial
01JW029XNR37MHA24H9XBWVRSY,24,3,5,1.0,0,0,23,3,5,1.0,asocial
01JW029XNR37MHA24H9XBWVRSY,24,4,5,1.0,0,0,7,1,5,1.0,asocial
01JW029XNR37MHA24H9XBWVRSY,24,5,5,1.0,2,0,8,1,5,1.0,asocial
01JW029XNR37MHA24H9XBWVRSY,24,6,5,1.0,5,0,26,1,5,1.0,asocial
01JW029XNR37MHA24H9XBWVRSY,24,7,5,1.0,0,0,32,5,5,1.0,asocial
01JW029XNR37MHA24H9XBWVRSY,24,8,5,1.0,0,0,26,4,5,1.0,asocial
01JW029XNR37MHA24H9XBWVRSY,24,9,5,1.0,5,0,16,1,5,1.0,asocial
01JW029XNR37MHA24H9XBWVRSY,25,0,5,1.0,0,0,7,1,5,1.0,asocial
01JW029XNR37MHA24H9XBWVRSY,25,1,5,1.0,5,0,35,2,5,1.0,asocial
01JW029XNR37MHA24H9XBWVRSY,25,2,5,1.0,5,1,33,1,5,1.0,asocial
01JW029XNR37MHA24H9XBWVRSY,25,3,5,1.0,0,0,24,3,5,1.0,asocial
01JW029XNR37MHA24H9XBWVRSY,25,4,5,1.0,0,0,7,1,5,1.0,asocial
01JW029XNR37MHA24H9XBWVRSY,25,5,5,1.0,3,0,10,1,5,1.0,asocial
01JW029XNR37MHA24H9XBWVRSY,25,6,5,1.0,5,0,26,1,5,1.0,asocial
01JW029XNR37MHA24H9XBWVRSY,25,7,5,1.0,0,0,34,5,5,1.0,asocial
01JW029XNR37MHA24H9XBWVRSY,25,8,5,1.0,0,0,27,4,5,1.0,asocial
01JW029XNR37MHA24H9XBWVRSY,25,9,5,1.0,5,0,17,1,5,1.0,asocial
01JW029XNR37MHA24H9XBWVRSY,26,0,5,1.0,0,0,7,1,5,1.0,asocial
01JW029XNR37MHA24H9XBWVRSY,26,1,5,1.0,5,0,37,2,5,1.0,asocial
01JW029XNR37MHA24H9XBWVRSY,26,2,5,1.0,5,1,35,1,5,1.0,asocial
01JW029XNR37MHA24H9XBWVRSY,26,3,5,1.0,0,0,26,3,5,1.0,asocial
01JW029XNR37MHA24H9XBWVRSY,26,4,5,1.0,0,0,7,1,5,1.0,asocial
01JW029XNR37MHA24H9XBWVRSY,26,5,5,1.0,4,0,11,1,5,1.0,asocial
01JW029XNR37MHA24H9XBWVRSY,26,6,5,1.0,5,0,26,1,5,1.0,asocial
01JW029XNR37MHA24H9XBWVRSY,26,7,5,1.0,0,0,35,5,5,1.0,asocial
01JW029XNR37MHA24H9XBWVRSY,26,8,5,1.0,0,0,28,4,5,1.0,asocial
01JW029XNR37MHA24H9XBWVRSY,26,9,5,1.0,5,0,18,1,5,1.0,asocial
01JW029XNR37MHA24H9XBWVRSY,27,0,2,1.0,0,0,7,2,5,1.0,asocial
01JW029XNR37MHA24H9XBWVRSY,27,1,2,1.0,5,0,39,2,5,1.0,asocial
01JW029XNR37MHA24H9XBWVRSY,27,2,2,1.0,5,1,36,1,5,1.0,asocial
01JW029XNR37MHA24H9XBWVRSY,27,3,2,1.0,0,0,27,3,5,1.0,asocial
01JW029XNR37MHA24H9XBWVRSY,27,4,2,1.0,0,0,7,1,5,1.0,asocial
01JW029XNR37MHA24H9XBWVRSY,27,5,2,1.0,5,0,12,2,5,1.0,asocial
01JW029XNR37MHA24H9XBWVRSY,27,6,2,1.0,5,0,26,1,5,1.0,asocial
01JW029XNR37MHA24H9XBWVRSY,27,7,2,1.0,0,0,36,5,5,1.0,asocial
01JW029XNR37MHA24H9XBWVRSY,27,8,2,1.0,0,0,29,4,5,1.0,asocial
01JW029XNR37MHA24H9XBWVRSY,27,9,2,1.0,5,0,19,1,5,1.0,asocial
01JW029XNR37MHA24H9XBWVRSY,28,0,2,1.0,0,0,7,2,2,1.0,asocial
01JW029XNR37MHA24H9XBWVRSY,28,1,2,1.0,5,0,40,2,2,1.0,asocial
01JW029XNR37MHA24H9XBWVRSY,28,2,2,1.0,6,1,38,2,2,1.0,asocial
01JW029XNR37MHA24H9XBWVRSY,28,3,2,1.0,0,0,28,4,2,1.0,asocial
01JW029XNR37MHA24H9XBWVRSY,28,4,2,1.0,0,0,7,1,2,1.0,asocial
01JW029XNR37MHA24H9XBWVRSY,28,5,2,1.0,5,0,13,2,2,1.0,asocial
01JW029XNR37MHA24H9XBWVRSY,28,6,2,1.0,5,0,26,1,2,1.0,asocial
01JW029XNR37MHA24H9XBWVRSY,28,7,2,1.0,0,0,37,5,2,1.0,asocial
01JW029XNR37MHA24H9XBWVRSY,28,8,2,1.0,0,0,30,4,2,1.0,asocial
01JW029XNR37MHA24H9XBWVRSY,28,9,2,1.0,5,0,20,1,2,1.0,asocial
01JW029XNR37MHA24H9XBWVRSY,29,0,2,1.0,0,0,7,2,2,1.0,asocial
01JW029XNR37MHA24H9XBWVRSY,29,1,2,1.0,5,0,42,2,2,1.0,asocial
01JW029XNR37MHA24H9XBWVRSY,29,2,2,1.0,7,1,40,2,2,1.0,asocial
01JW029XNR37MHA24H9XBWVRSY,29,3,2,1.0,0,0,29,4,2,1.0,asocial
01JW029XNR37MHA24H9XBWVRSY,29,4,2,1.0,0,0,7,1,2,1.0,asocial
01JW029XNR37MHA24H9XBWVRSY,29,5,2,1.0,5,0,13,2,2,1.0,asocial
01JW029XNR37MHA24H9XBWVRSY,29,6,2,1.0,5,0,26,1,2,1.0,asocial
01JW029XNR37MHA24H9XBWVRSY,29,7,2,1.0,0,0,39,5,2,1.0,asocial
01JW029XNR37MHA24H9XBWVRSY,29,8,2,1.0,0,0,32,4,2,1.0,asocial
01JW029XNR37MHA24H9XBWVRSY,29,9,2,1.0,5,0,21,1,2,1.0,asocial
01JW029XNR37MHA24H9XBWVRSY,30,0,2,1.0,0,0,7,2,2,1.0,asocial
01JW029XNR37MHA24H9XBWVRSY,30,1,2,1.0,5,0,44,2,2,1.0,asocial
01JW029XNR37MHA24H9XBWVRSY,30,2,2,1.0,8,1,42,2,2,1.0,asocial
01JW029XNR37MHA24H9XBWVRSY,30,3,2,1.0,0,0,31,4,2,1.0,asocial
01JW029XNR37MHA24H9XBWVRSY,30,4,2,1.0,0,0,7,1,2,1.0,asocial
01JW029XNR37MHA24H9XBWVRSY,30,5,2,1.0,5,0,13,2,2,1.0,asocial
01JW029XNR37MHA24H9XBWVRSY,30,6,2,1.0,5,0,27,1,2,1.0,asocial
01JW029XNR37MHA24H9XBWVRSY,30,7,2,1.0,0,0,40,5,2,1.0,asocial
01JW029XNR37MHA24H9XBWVRSY,30,8,2,1.0,0,0,33,4,2,1.0,asocial
01JW029XNR37MHA24H9XBWVRSY,30,9,2,1.0,5,0,22,1,2,1.0,asocial
01JW029XNR37MHA24H9XBWVRSY,31,0,2,1.0,0,0,7,2,2,1.0,asocial
01JW029XNR37MHA24H9XBWVRSY,31,1,2,1.0,5,0,45,2,2,1.0,asocial
01JW029XNR37MHA24H9XBWVRSY,31,2,2,1.0,9,1,44,3,2,1.0,asocial
01JW029XNR37MHA24H9XBWVRSY,31,3,2,1.0,0,0,32,4,2,1.0,asocial
01JW029XNR37MHA24H9XBWVRSY,31,4,2,1.0,0,0,7,1,2,1.0,asocial
01JW029XNR37MHA24H9XBWVRSY,31,5,2,1.0,5,0,14,2,2,1.0,asocial
01JW029XNR37MHA24H9XBWVRSY,31,6,2,1.0,5,0,28,1,2,1.0,asocial
01JW029XNR37MHA24H9XBWVRSY,31,7,2,1.0,0,0,41,5,2,1.0,asocial
01JW029XNR37MHA24H9XBWVRSY,31,8,2,1.0,0,0,34,4,2,1.0,asocial
01JW029XNR37MHA24H9XBWVRSY,31,9,2,1.0,5,0,23,1,2,1.0,asocial
01JW029XNR37MHA24H9XBWVRSY,32,0,2,1.0,0,0,7,2,2,1.0,asocial
01JW029XNR37MHA24H9XBWVRSY,32,1,2,1.0,5,0,46,2,2,1.0,asocial
01JW029XNR37MHA24H9XBWVRSY,32,2,2,1.0,10,1,47,3,2,1.0,asocial
01JW029XNR37MHA24H9XBWVRSY,32,3,2,1.0,0,0,34,4,2,1.0,asocial
01JW029XNR37MHA24H9XBWVRSY,32,4,2,1.0,0,0,8,1,2,1.0,asocial
01JW029XNR37MHA24H9XBWVRSY,32,5,2,1.0,5,0,14,2,2,1.0,asocial
01JW029XNR37MHA24H9XBWVRSY,32,6,2,1.0,5,0,28,1,2,1.0,asocial
01JW029XNR37MHA24H9XBWVRSY,32,7,2,1.0,0,0,42,5,2,1.0,asocial
01JW029XNR37MHA24H9XBWVRSY,32,8,2,1.0,0,0,35,4,2,1.0,asocial
01JW029XNR37MHA24H9XBWVRSY,32,9,2,1.0,5,0,24,1,2,1.0,asocial
01JW029XNR37MHA24H9XBWVRSY,33,0,2,0.0,0,0,8,2,2,1.0,asocial
01JW029XNR37MHA24H9XBWVRSY,33,1,2,0.0,5,0,47,2,2,1.0,asocial
01JW029XNR37MHA24H9XBWVRSY,33,2,2,0.0,11,1,49,3,2,1.0,asocial
01JW029XNR37MHA24H9XBWVRSY,33,3,2,0.0,0,0,35,4,2,1.0,asocial
01JW029XNR37MHA24H9XBWVRSY,33,4,2,0.0,0,0,8,1,2,1.0,asocial
01JW029XNR37MHA24H9XBWVRSY,33,5,2,0.0,5,0,15,2,2,1.0,asocial
01JW029XNR37MHA24H9XBWVRSY,33,6,2,0.0,5,0,28,1,2,1.0,asocial
01JW029XNR37MHA24H9XBWVRSY,33,7,2,0.0,0,0,44,5,2,1.0,asocial
01JW029XNR37MHA24H9XBWVRSY,33,8,2,0.0,0,0,35,5,2,1.0,asocial
01JW029XNR37MHA24H9XBWVRSY,33,9,2,0.0,5,0,25,1,2,1.0,asocial
01JW029XNR37MHA24H9XBWVRSY,34,0,1,1.0,0,0,8,2,2,0.0,asocial
01JW029XNR37MHA24H9XBWVRSY,34,1,1,1.0,5,0,48,2,2,0.0,asocial
01JW029XNR37MHA24H9XBWVRSY,34,2,1,1.0,11,2,50,4,2,0.0,asocial
01JW029XNR37MHA24H9XBWVRSY,34,3,1,1.0,0,0,35,5,2,0.0,asocial
01JW029XNR37MHA24H9XBWVRSY,34,4,1,1.0,0,0,8,1,2,0.0,asocial
01JW029XNR37MHA24H9XBWVRSY,34,5,1,1.0,5,0,16,2,2,0.0,asocial
01JW029XNR37MHA24H9XBWVRSY,34,6,1,1.0,5,0,30,1,2,0.0,asocial
01JW029XNR37MHA24H9XBWVRSY,34,7,1,1.0,0,0,45,5,2,0.0,asocial
01JW029XNR37MHA24H9XBWVRSY,34,8,1,1.0,0,0,36,5,2,0.0,asocial
01JW029XNR37MHA24H9XBWVRSY,34,9,1,1.0,5,0,26,1,2,0.0,asocial
01JW029XNR37MHA24H9XBWVRSY,35,0,1,1.0,0,0,8,2,1,1.0,asocial
01JW029XNR37MHA24H9XBWVRSY,35,1,1,1.0,6,0,50,2,1,1.0,asocial
01JW029XNR37MHA24H9XBWVRSY,35,2,1,1.0,11,2,52,4,1,1.0,asocial
01JW029XNR37MHA24H9XBWVRSY,35,3,1,1.0,0,0,36,5,1,1.0,asocial
01JW029XNR37MHA24H9XBWVRSY,35,4,1,1.0,0,0,8,2,1,1.0,asocial
01JW029XNR37MHA24H9XBWVRSY,35,5,1,1.0,5,0,16,2,1,1.0,asocial
01JW029XNR37MHA24H9XBWVRSY,35,6,1,1.0,5,0,30,1,1,1.0,asocial
01JW029XNR37MHA24H9XBWVRSY,35,7,1,1.0,0,0,47,5,1,1.0,asocial
01JW029XNR37MHA24H9XBWVRSY,35,8,1,1.0,0,0,37,5,1,1.0,asocial
01JW029XNR37MHA24H9XBWVRSY,35,9,1,1.0,5,0,27,1,1,1.0,asocial
01JW029XNR37MHA24H9XBWVRSY,36,0,9,1.0,0,0,8,2,1,1.0,asocial
01JW029XNR37MHA24H9XBWVRSY,36,1,9,1.0,7,0,53,2,1,1.0,asocial
01JW029XNR37MHA24H9XBWVRSY,36,2,9,1.0,11,2,52,5,1,1.0,asocial
01JW029XNR37MHA24H9XBWVRSY,36,3,9,1.0,0,0,37,5,1,1.0,asocial
01JW029XNR37MHA24H9XBWVRSY,36,4,9,1.0,0,0,8,2,1,1.0,asocial
01JW029XNR37MHA24H9XBWVRSY,36,5,9,1.0,5,0,16,2,1,1.0,asocial
01JW029XNR37MHA24H9XBWVRSY,36,6,9,1.0,5,0,31,1,1,1.0,asocial
01JW029XNR37MHA24H9XBWVRSY,36,7,9,1.0,0,0,49,5,1,1.0,asocial
01JW029XNR37MHA24H9XBWVRSY,36,8,9,1.0,0,0,38,5,1,1.0,asocial
01JW029XNR37MHA24H9XBWVRSY,36,9,9,1.0,5,0,28,1,1,1.0,asocial
01JW029XNR37MHA24H9XBWVRSY,37,0,9,1.0,0,0,8,2,9,1.0,asocial
01JW029XNR37MHA24H9XBWVRSY,37,1,9,1.0,7,0,54,2,9,1.0,asocial
01JW029XNR37MHA24H9XBWVRSY,37,2,9,1.0,11,2,53,5,9,1.0,asocial
01JW029XNR37MHA24H9XBWVRSY,37,3,9,1.0,0,0,39,5,9,1.0,asocial
01JW029XNR37MHA24H9XBWVRSY,37,4,9,1.0,0,0,8,3,9,1.0,asocial
01JW029XNR37MHA24H9XBWVRSY,37,5,9,1.0,5,0,16,2,9,1.0,asocial
01JW029XNR37MHA24H9XBWVRSY,37,6,9,1.0,5,0,31,1,9,1.0,asocial
01JW029XNR37MHA24H9XBWVRSY,37,7,9,1.0,0,0,50,6,9,1.0,asocial
01JW029XNR37MHA24H9XBWVRSY,37,8,9,1.0,0,0,39,5,9,1.0,asocial
01JW029XNR37MHA24H9XBWVRSY,37,9,9,1.0,6,0,30,1,9,1.0,asocial
01JW029XNR37MHA24H9XBWVRSY,38,0,8,1.0,0,0,8,3,9,1.0,asocial
01JW029XNR37MHA24H9XBWVRSY,38,1,8,1.0,7,0,56,2,9,1.0,asocial
01JW029XNR37MHA24H9XBWVRSY,38,2,8,1.0,11,2,54,5,9,1.0,asocial
01JW029XNR37MHA24H9XBWVRSY,38,3,8,1.0,0,0,40,5,9,1.0,asocial
01JW029XNR37MHA24H9XBWVRSY,38,4,8,1.0,0,0,8,3,9,1.0,asocial
01JW029XNR37MHA24H9XBWVRSY,38,5,8,1.0,5,0,16,2,9,1.0,asocial
01JW029XNR37MHA24H9XBWVRSY,38,6,8,1.0,5,0,31,1,9,1.0,asocial
01JW029XNR37MHA24H9XBWVRSY,38,7,8,1.0,0,0,52,6,9,1.0,asocial
01JW029XNR37MHA24H9XBWVRSY,38,8,8,1.0,0,0,40,5,9,1.0,asocial
01JW029XNR37MHA24H9XBWVRSY,38,9,8,1.0,7,0,32,1,9,1.0,asocial
01JW029XNR37MHA24H9XBWVRSY,39,0,3,1.0,0,0,9,3,8,1.0,asocial
01JW029XNR37MHA24H9XBWVRSY,39,1,3,1.0,7,0,58,2,8,1.0,asocial
01JW029XNR37MHA24H9XBWVRSY,39,2,3,1.0,11,2,55,5,8,1.0,asocial
01JW029XNR37MHA24H9XBWVRSY,39,3,3,1.0,0,0,41,5,8,1.0,asocial
01JW029XNR37MHA24H9XBWVRSY,39,4,3,1.0,0,0,8,3,8,1.0,asocial
01JW029XNR37MHA24H9XBWVRSY,39,5,3,1.0,5,0,16,2,8,1.0,asocial
01JW029XNR37MHA24H9XBWVRSY,39,6,3,1.0,5,0,32,1,8,1.0,asocial
01JW029XNR37MHA24H9XBWVRSY,39,7,3,1.0,0,0,53,6,8,1.0,asocial
01JW029XNR37MHA24H9XBWVRSY,39,8,3,1.0,1,0,42,5,8,1.0,asocial
01JW029XNR37MHA24H9XBWVRSY,39,9,3,1.0,7,0,33,1,8,1.0,asocial
01JW029XNR37MHA24H9XBWVRSY,40,0,3,1.0,0,0,9,3,3,1.0,asocial
01JW029XNR37MHA24H9XBWVRSY,40,1,3,1.0,7,0,59,2,3,1.0,asocial
01JW029XNR37MHA24H9XBWVRSY,40,2,3,1.0,11,2,57,5,3,1.0,asocial
01JW029XNR37MHA24H9XBWVRSY,40,3,3,1.0,1,0,43,5,3,1.0,asocial
01JW029XNR37MHA24H9XBWVRSY,40,4,3,1.0,0,0,8,3,3,1.0,asocial
01JW029XNR37MHA24H9XBWVRSY,40,5,3,1.0,5,0,16,2,3,1.0,asocial
01JW029XNR37MHA24H9XBWVRSY,40,6,3,1.0,5,0,34,1,3,1.0,asocial
01JW029XNR37MHA24H9XBWVRSY,40,7,3,1.0,0,0,54,6,3,1.0,asocial
01JW029XNR37MHA24H9XBWVRSY,40,8,3,1.0,1,0,43,5,3,1.0,asocial
01JW029XNR37MHA24H9XBWVRSY,40,9,3,1.0,7,0,33,2,3,1.0,asocial
01JW029XNR37MHA24H9XBWVRSY,41,0,6,1.0,0,0,9,3,3,1.0,asocial
01JW029XNR37MHA24H9XBWVRSY,41,1,6,1.0,7,0,60,2,3,1.0,asocial
01JW029XNR37MHA24H9XBWVRSY,41,2,6,1.0,11,2,59,5,3,1.0,asocial
01JW029XNR37MHA24H9XBWVRSY,41,3,6,1.0,2,0,45,5,3,1.0,asocial
01JW029XNR37MHA24H9XBWVRSY,41,4,6,1.0,0,0,8,3,3,1.0,asocial
01JW029XNR37MHA24H9XBWVRSY,41,5,6,1.0,5,0,16,2,3,1.0,asocial
01JW029XNR37MHA24H9XBWVRSY,41,6,6,1.0,5,0,34,1,3,1.0,asocial
01JW029XNR37MHA24H9XBWVRSY,41,7,6,1.0,0,0,55,6,3,1.0,asocial
01JW029XNR37MHA24H9XBWVRSY,41,8,6,1.0,1,0,45,5,3,1.0,asocial
01JW029XNR37MHA24H9XBWVRSY,41,9,6,1.0,7,0,35,2,3,1.0,asocial
01JW029XNR37MHA24H9XBWVRSY,42,0,6,1.0,0,0,10,3,6,1.0,asocial
01JW029XNR37MHA24H9XBWVRSY,42,1,6,1.0,7,0,61,2,6,1.0,asocial
01JW029XNR37MHA24H9XBWVRSY,42,2,6,1.0,11,2,60,5,6,1.0,asocial
01JW029XNR37MHA24H9XBWVRSY,42,3,6,1.0,2,0,46,5,6,1.0,asocial
01JW029XNR37MHA24H9XBWVRSY,42,4,6,1.0,0,0,9,3,6,1.0,asocial
01JW029XNR37MHA24H9XBWVRSY,42,5,6,1.0,5,0,16,2,6,1.0,asocial
01JW029XNR37MHA24H9XBWVRSY,42,6,6,1.0,6,0,36,1,6,1.0,asocial
01JW029XNR37MHA24H9XBWVRSY,42,7,6,1.0,0,0,56,6,6,1.0,asocial
01JW029XNR37MHA24H9XBWVRSY,42,8,6,1.0,1,0,47,5,6,1.0,asocial
01JW029XNR37MHA24H9XBWVRSY,42,9,6,1.0,7,0,35,2,6,1.0,asocial
01JW029XNR37MHA24H9XBWVRSY,43,0,6,1.0,0,0,10,3,6,1.0,asocial
01JW029XNR37MHA24H9XBWVRSY,43,1,6,1.0,7,0,62,2,6,1.0,asocial
01JW029XNR37MHA24H9XBWVRSY,43,2,6,1.0,11,2,61,5,6,1.0,asocial
01JW029XNR37MHA24H9XBWVRSY,43,3,6,1.0,2,0,49,5,6,1.0,asocial
01JW029XNR37MHA24H9XBWVRSY,43,4,6,1.0,0,0,9,3,6,1.0,asocial
01JW029XNR37MHA24H9XBWVRSY,43,5,6,1.0,5,0,16,2,6,1.0,asocial
01JW029XNR37MHA24H9XBWVRSY,43,6,6,1.0,7,0,37,1,6,1.0,asocial
01JW029XNR37MHA24H9XBWVRSY,43,7,6,1.0,0,0,57,6,6,1.0,asocial
01JW029XNR37MHA24H9XBWVRSY,43,8,6,1.0,1,0,49,6,6,1.0,asocial
01JW029XNR37MHA24H9XBWVRSY,43,9,6,1.0,7,0,35,2,6,1.0,asocial
01JW029XNR37MHA24H9XBWVRSY,44,0,6,1.0,0,0,10,3,6,1.0,asocial
01JW029XNR37MHA24H9XBWVRSY,44,1,6,1.0,7,0,63,2,6,1.0,asocial
01JW029XNR37MHA24H9XBWVRSY,44,2,6,1.0,11,2,62,5,6,1.0,asocial
01JW029XNR37MHA24H9XBWVRSY,44,3,6,1.0,2,0,50,5,6,1.0,asocial
01JW029XNR37MHA24H9XBWVRSY,44,4,6,1.0,0,0,9,3,6,1.0,asocial
01JW029XNR37MHA24H9XBWVRSY,44,5,6,1.0,5,0,16,2,6,1.0,asocial
01JW029XNR37MHA24H9XBWVRSY,44,6,6,1.0,8,0,38,1,6,1.0,asocial
01JW029XNR37MHA24H9XBWVRSY,44,7,6,1.0,0,0,59,6,6,1.0,asocial
01JW029XNR37MHA24H9XBWVRSY,44,8,6,1.0,1,0,51,7,6,1.0,asocial
01JW029XNR37MHA24H9XBWVRSY,44,9,6,1.0,7,0,36,2,6,1.0,asocial
01JW029XNR37MHA24H9XBWVRSY,45,0,8,1.0,0,0,10,3,6,1.0,asocial
01JW029XNR37MHA24H9XBWVRSY,45,1,8,1.0,7,0,65,2,6,1.0,asocial
01JW029XNR37MHA24H9XBWVRSY,45,2,8,1.0,11,2,63,5,6,1.0,asocial
01JW029XNR37MHA24H9XBWVRSY,45,3,8,1.0,2,0,51,5,6,1.0,asocial
01JW029XNR37MHA24H9XBWVRSY,45,4,8,1.0,0,0,9,3,6,1.0,asocial
01JW029XNR37MHA24H9XBWVRSY,45,5,8,1.0,5,0,16,2,6,1.0,asocial
01JW029XNR37MHA24H9XBWVRSY,45,6,8,1.0,9,0,39,1,6,1.0,asocial
01JW029XNR37MHA24H9XBWVRSY,45,7,8,1.0,0,0,61,6,6,1.0,asocial
01JW029XNR37MHA24H9XBWVRSY,45,8,8,1.0,1,0,54,7,6,1.0,asocial
01JW029XNR37MHA24H9XBWVRSY,45,9,8,1.0,7,0,36,2,6,1.0,asocial
01JW029XNR37MHA24H9XBWVRSY,46,0,8,1.0,0,0,10,3,8,1.0,asocial
01JW029XNR37MHA24H9XBWVRSY,46,1,8,1.0,7,0,66,2,8,1.0,asocial
01JW029XNR37MHA24H9XBWVRSY,46,2,8,1.0,11,2,65,6,8,1.0,asocial
01JW029XNR37MHA24H9XBWVRSY,46,3,8,1.0,2,0,51,6,8,1.0,asocial
01JW029XNR37MHA24H9XBWVRSY,46,4,8,1.0,0,0,9,3,8,1.0,asocial
01JW029XNR37MHA24H9XBWVRSY,46,5,8,1.0,5,0,16,2,8,1.0,asocial
01JW029XNR37MHA24H9XBWVRSY,46,6,8,1.0,9,0,39,1,8,1.0,asocial
01JW029XNR37MHA24H9XBWVRSY,46,7,8,1.0,0,0,62,6,8,1.0,asocial
01JW029XNR37MHA24H9XBWVRSY,46,8,8,1.0,2,0,57,7,8,1.0,asocial
01JW029XNR37MHA24H9XBWVRSY,46,9,8,1.0,7,0,37,2,8,1.0,asocial
01JW029XNR37MHA24H9XBWVRSY,47,0,8,1.0,0,0,10,3,8,1.0,asocial
01JW029XNR37MHA24H9XBWVRSY,47,1,8,1.0,7,0,67,2,8,1.0,asocial
01JW029XNR37MHA24H9XBWVRSY,47,2,8,1.0,11,2,66,6,8,1.0,asocial
01JW029XNR37MHA24H9XBWVRSY,47,3,8,1.0,2,0,52,6,8,1.0,asocial
01JW029XNR37MHA24H9XBWVRSY,47,4,8,1.0,0,0,9,3,8,1.0,asocial
01JW029XNR37MHA24H9XBWVRSY,47,5,8,1.0,5,0,16,2,8,1.0,asocial
01JW029XNR37MHA24H9XBWVRSY,47,6,8,1.0,9,0,41,1,8,1.0,asocial
01JW029XNR37MHA24H9XBWVRSY,47,7,8,1.0,0,0,64,6,8,1.0,asocial
01JW029XNR37MHA24H9XBWVRSY,47,8,8,1.0,3,0,60,7,8,1.0,asocial
01JW029XNR37MHA24H9XBWVRSY,47,9,8,1.0,7,0,37,2,8,1.0,asocial
01JW029XNR37MHA24H9XBWVRSY,48,0,3,1.0,0,0,11,3,8,1.0,asocial
01JW029XNR37MHA24H9XBWVRSY,48,1,3,1.0,7,0,68,2,8,1.0,asocial
01JW029XNR37MHA24H9XBWVRSY,48,2,3,1.0,11,2,67,6,8,1.0,asocial
01JW029XNR37MHA24H9XBWVRSY,48,3,3,1.0,2,0,54,6,8,1.0,asocial
01JW029XNR37MHA24H9XBWVRSY,48,4,3,1.0,0,0,9,3,8,1.0,asocial
01JW029XNR37MHA24H9XBWVRSY,48,5,3,1.0,5,0,16,2,8,1.0,asocial
01JW029XNR37MHA24H9XBWVRSY,48,6,3,1.0,9,0,42,1,8,1.0,asocial
01JW029XNR37MHA24H9XBWVRSY,48,7,3,1.0,0,0,65,6,8,1.0,asocial
01JW029XNR37MHA24H9XBWVRSY,48,8,3,1.0,4,0,63,7,8,1.0,asocial
01JW029XNR37MHA24H9XBWVRSY,48,9,3,1.0,7,0,37,2,8,1.0,asocial
01JW029XNR37MHA24H9XBWVRSY,49,0,3,1.0,0,0,11,3,3,1.0,asocial
01JW029XNR37MHA24H9XBWVRSY,49,1,3,1.0,7,0,69,2,3,1.0,asocial
01JW029XNR37MHA24H9XBWVRSY,49,2,3,1.0,11,2,69,6,3,1.0,asocial
01JW029XNR37MHA24H9XBWVRSY,49,3,3,1.0,3,0,56,6,3,1.0,asocial
01JW029XNR37MHA24H9XBWVRSY,49,4,3,1.0,0,0,9,3,3,1.0,asocial
01JW029XNR37MHA24H9XBWVRSY,49,5,3,1.0,5,0,16,3,3,1.0,asocial
01JW029XNR37MHA24H9XBWVRSY,49,6,3,1.0,9,0,43,1,3,1.0,asocial
01JW029XNR37MHA24H9XBWVRSY,49,7,3,1.0,0,0,65,7,3,1.0,asocial
01JW029XNR37MHA24H9XBWVRSY,49,8,3,1.0,4,0,65,7,3,1.0,asocial
01JW029XNR37MHA24H9XBWVRSY,49,9,3,1.0,7,0,37,2,3,1.0,asocial
01JW029XNR37MHA24H9XBWVRSY,50,0,1,1.0,0,0,11,3,3,1.0,asocial
01JW029XNR37MHA24H9XBWVRSY,50,1,1,1.0,7,0,69,3,3,1.0,asocial
01JW029XNR37MHA24H9XBWVRSY,50,2,1,1.0,11,2,70,6,3,1.0,asocial
01JW029XNR37MHA24H9XBWVRSY,50,3,1,1.0,4,0,58,6,3,1.0,asocial
01JW029XNR37MHA24H9XBWVRSY,50,4,1,1.0,0,0,10,3,3,1.0,asocial
01JW029XNR37MHA24H9XBWVRSY,50,5,1,1.0,5,0,16,3,3,1.0,asocial
01JW029XNR37MHA24H9XBWVRSY,50,6,1,1.0,9,0,43,2,3,1.0,asocial
01JW029XNR37MHA24H9XBWVRSY,50,7,1,1.0,0,0,66,7,3,1.0,asocial
01JW029XNR37MHA24H9XBWVRSY,50,8,1,1.0,4,0,68,7,3,1.0,asocial
01JW029XNR37MHA24H9XBWVRSY,50,9,1,1.0,7,0,37,2,3,1.0,asocial
01JW029XNR37MHA24H9XBWVRSY,51,0,1,1.0,0,0,12,3,1,1.0,asocial
01JW029XNR37MHA24H9XBWVRSY,51,1,1,1.0,8,0,70,3,1,1.0,asocial
01JW029XNR37MHA24H9XBWVRSY,51,2,1,1.0,11,2,71,6,1,1.0,asocial
01JW029XNR37MHA24H9XBWVRSY,51,3,1,1.0,4,0,60,6,1,1.0,asocial
01JW029XNR37MHA24H9XBWVRSY,51,4,1,1.0,0,0,10,3,1,1.0,asocial
01JW029XNR37MHA24H9XBWVRSY,51,5,1,1.0,5,0,16,3,1,1.0,asocial
01JW029XNR37MHA24H9XBWVRSY,51,6,1,1.0,9,0,43,2,1,1.0,asocial
01JW029XNR37MHA24H9XBWVRSY,51,7,1,1.0,0,0,68,7,1,1.0,asocial
01JW029XNR37MHA24H9XBWVRSY,51,8,1,1.0,4,0,70,7,1,1.0,asocial
01JW029XNR37MHA24H9XBWVRSY,51,9,1,1.0,7,0,38,2,1,1.0,asocial
01JW02A8M61H4244YENRK5H5S5,1,0,8,1.0,0,0,0,0,-1,,asocial
01JW02A8M61H4244YENRK5H5S5,1,1,8,1.0,0,0,0,0,-1,,asocial
01JW02A8M61H4244YENRK5H5S5,1,2,8,1.0,0,0,0,0,-1,,asocial
01JW02A8M61H4244YENRK5H5S5,1,3,8,1.0,0,0,0,0,-1,,asocial
01JW02A8M61H4244YENRK5H5S5,1,4,8,1.0,0,0,0,0,-1,,asocial
01JW02A8M61H4244YENRK5H5S5,1,5,8,1.0,0,0,0,0,-1,,asocial
01JW02A8M61H4244YENRK5H5S5,1,6,8,1.0,0,0,0,0,-1,,asocial
01JW02A8M61H4244YENRK5H5S5,1,7,8,1.0,0,0,0,0,-1,,asocial
01JW02A8M61H4244YENRK5H5S5,1,8,8,1.0,0,0,0,0,-1,,asocial
01JW02A8M61H4244YENRK5H5S5,1,9,8,1.0,0,0,0,0,-1,,asocial
01JW02A8M61H4244YENRK5H5S5,2,0,8,1.0,0,0,1,0,8,1.0,asocial
01JW02A8M61H4244YENRK5H5S5,2,1,8,1.0,0,0,1,0,8,1.0,asocial
01JW02A8M61H4244YENRK5H5S5,2,2,8,1.0,0,0,1,0,8,1.0,asocial
01JW02A8M61H4244YENRK5H5S5,2,3,8,1.0,0,0,0,1,8,1.0,asocial
01JW02A8M61H4244YENRK5H5S5,2,4,8,1.0,0,0,1,0,8,1.0,asocial
01JW02A8M61H4244YENRK5H5S5,2,5,8,1.0,0,0,0,1,8,1.0,asocial
01JW02A8M61H4244YENRK5H5S5,2,6,8,1.0,0,0,1,0,8,1.0,asocial
01JW02A8M61H4244YENRK5H5S5,2,7,8,1.0,0,0,1,0,8,1.0,asocial
01JW02A8M61H4244YENRK5H5S5,2,8,8,1.0,1,0,1,0,8,1.0,asocial
01JW02A8M61H4244YENRK5H5S5,2,9,8,1.0,0,0,1,0,8,1.0,asocial
01JW02A8M61H4244YENRK5H5S5,3,0,8,1.0,0,0,1,1,8,1.0,asocial
01JW02A8M61H4244YENRK5H5S5,3,1,8,1.0,0,0,2,0,8,1.0,asocial
01JW02A8M61H4244YENRK5H5S5,3,2,8,1.0,0,0,2,0,8,1.0,asocial
01JW02A8M61H4244YENRK5H5S5,3,3,8,1.0,0,0,1,1,8,1.0,asocial
01JW02A8M61H4244YENRK5H5S5,3,4,8,1.0,0,0,2,0,8,1.0,asocial
01JW02A8M61H4244YENRK5H5S5,3,5,8,1.0,0,0,1,1,8,1.0,asocial
01JW02A8M61H4244YENRK5H5S5,3,6,8,1.0,0,0,2,0,8,1.0,asocial
01JW02A8M61H4244YENRK5H5S5,3,7,8,1.0,0,0,2,0,8,1.0,asocial
01JW02A8M61H4244YENRK5H5S5,3,8,8,1.0,2,0,2,0,8,1.0,asocial
01JW02A8M61H4244YENRK5H5S5,3,9,8,1.0,0,0,2,0,8,1.0,asocial
01JW02A8M61H4244YENRK5H5S5,4,0,8,1.0,0,0,1,1,8,1.0,asocial
01JW02A8M61H4244YENRK5H5S5,4,1,8,1.0,0,0,3,0,8,1.0,asocial
01JW02A8M61H4244YENRK5H5S5,4,2,8,1.0,0,0,3,0,8,1.0,asocial
01JW02A8M61H4244YENRK5H5S5,4,3,8,1.0,0,0,2,2,8,1.0,asocial
01JW02A8M61H4244YENRK5H5S5,4,4,8,1.0,0,0,2,0,8,1.0,asocial
01JW02A8M61H4244YENRK5H5S5,4,5,8,1.0,0,0,1,1,8,1.0,asocial
01JW02A8M61H4244YENRK5H5S5,4,6,8,1.0,0,0,4,0,8,1.0,asocial
01JW02A8M61H4244YENRK5H5S5,4,7,8,1.0,0,0,5,0,8,1.0,asocial
01JW02A8M61H4244YENRK5H5S5,4,8,8,1.0,3,0,3,0,8,1.0,asocial
01JW02A8M61H4244YENRK5H5S5,4,9,8,1.0,0,0,2,0,8,1.0,asocial
01JW02A8M61H4244YENRK5H5S5,5,0,8,1.0,0,0,1,1,8,1.0,asocial
01JW02A8M61H4244YENRK5H5S5,5,1,8,1.0,0,0,4,1,8,1.0,asocial
01JW02A8M61H4244YENRK5H5S5,5,2,8,1.0,0,0,4,0,8,1.0,asocial
01JW02A8M61H4244YENRK5H5S5,5,3,8,1.0,0,0,3,2,8,1.0,asocial
01JW02A8M61H4244YENRK5H5S5,5,4,8,1.0,0,0,2,0,8,1.0,asocial
01JW02A8M61H4244YENRK5H5S5,5,5,8,1.0,0,0,1,1,8,1.0,asocial
01JW02A8M61H4244YENRK5H5S5,5,6,8,1.0,0,0,6,0,8,1.0,asocial
01JW02A8M61H4244YENRK5H5S5,5,7,8,1.0,0,0,8,0,8,1.0,asocial
01JW02A8M61H4244YENRK5H5S5,5,8,8,1.0,4,0,4,0,8,1.0,asocial
01JW02A8M61H4244YENRK5H5S5,5,9,8,1.0,0,0,2,0,8,1.0,asocial
01JW02A8M61H4244YENRK5H5S5,6,0,8,1.0,0,0,1,1,8,1.0,asocial
01JW02A8M61H4244YENRK5H5S5,6,1,8,1.0,0,0,5,1,8,1.0,asocial
01JW02A8M61H4244YENRK5H5S5,6,2,8,1.0,0,0,5,0,8,1.0,asocial
01JW02A8M61H4244YENRK5H5S5,6,3,8,1.0,0,0,4,2,8,1.0,asocial
01JW02A8M61H4244YENRK5H5S5,6,4,8,1.0,0,0,2,1,8,1.0,asocial
01JW02A8M61H4244YENRK5H5S5,6,5,8,1.0,0,0,1,1,8,1.0,asocial
01JW02A8M61H4244YENRK5H5S5,6,6,8,1.0,0,0,8,0,8,1.0,asocial
01JW02A8M61H4244YENRK5H5S5,6,7,8,1.0,0,0,10,0,8,1.0,asocial
01JW02A8M61H4244YENRK5H5S5,6,8,8,1.0,5,0,5,0,8,1.0,asocial
01JW02A8M61H4244YENRK5H5S5,6,9,8,1.0,0,0,3,0,8,1.0,asocial
01JW02A8M61H4244YENRK5H5S5,7,0,8,1.0,0,0,1,1,8,1.0,asocial
01JW02A8M61H4244YENRK5H5S5,7,1,8,1.0,0,0,8,1,8,1.0,asocial
01JW02A8M61H4244YENRK5H5S5,7,2,8,1.0,0,0,7,0,8,1.0,asocial
01JW02A8M61H4244YENRK5H5S5,7,3,8,1.0,0,0,5,2,8,1.0,asocial
01JW02A8M61H4244YENRK5H5S5,7,4,8,1.0,0,0,2,1,8,1.0,asocial
01JW02A8M61H4244YENRK5H5S5,7,5,8,1.0,0,0,1,1,8,1.0,asocial
01JW02A8M61H4244YENRK5H5S5,7,6,8,1.0,0,0,8,0,8,1.0,asocial
01JW02A8M61H4244YENRK5H5S5,7,7,8,1.0,0,0,12,0,8,1.0,asocial
01JW02A8M61H4244YENRK5H5S5,7,8,8,1.0,6,0,6,0,8,1.0,asocial
01JW02A8M61H4244YENRK5H5S5,7,9,8,1.0,0,0,4,0,8,1.0,asocial
01JW02A8M61H4244YENRK5H5S5,8,0,8,1.0,0,0,1,1,8,1.0,asocial
01JW02A8M61H4244YENRK5H5S5,8,1,8,1.0,0,0,10,1,8,1.0,asocial
01JW02A8M61H4244YENRK5H5S5,8,2,8,1.0,0,0,8,0,8,1.0,asocial
01JW02A8M61H4244YENRK5H5S5,8,3,8,1.0,0,0,6,2,8,1.0,asocial
01JW02A8M61H4244YENRK5H5S5,8,4,8,1.0,0,0,2,1,8,1.0,asocial
01JW02A8M61H4244YENRK5H5S5,8,5,8,1.0,0,0,2,1,8,1.0,asocial
01JW02A8M61H4244YENRK5H5S5,8,6,8,1.0,0,0,9,0,8,1.0,asocial
01JW02A8M61H4244YENRK5H5S5,8,7,8,1.0,0,0,15,0,8,1.0,asocial
01JW02A8M61H4244YENRK5H5S5,8,8,8,1.0,7,0,7,0,8,1.0,asocial
01JW02A8M61H4244YENRK5H5S5,8,9,8,1.0,0,0,4,0,8,1.0,asocial
01JW02A8M61H4244YENRK5H5S5,9,0,8,1.0,0,0,2,1,8,1.0,asocial
01JW02A8M61H4244YENRK5H5S5,9,1,8,1.0,0,0,13,1,8,1.0,asocial
01JW02A8M61H4244YENRK5H5S5,9,2,8,1.0,0,0,9,0,8,1.0,asocial
01JW02A8M61H4244YENRK5H5S5,9,3,8,1.0,0,0,7,2,8,1.0,asocial
01JW02A8M61H4244YENRK5H5S5,9,4,8,1.0,0,0,2,1,8,1.0,asocial
01JW02A8M61H4244YENRK5H5S5,9,5,8,1.0,0,0,2,1,8,1.0,asocial
01JW02A8M61H4244YENRK5H5S5,9,6,8,1.0,0,0,10,0,8,1.0,asocial
01JW02A8M61H4244YENRK5H5S5,9,7,8,1.0,0,0,17,0,8,1.0,asocial
01JW02A8M61H4244YENRK5H5S5,9,8,8,1.0,8,0,8,0,8,1.0,asocial
01JW02A8M61H4244YENRK5H5S5,9,9,8,1.0,0,0,4,0,8,1.0,asocial
01JW02A8M61H4244YENRK5H5S5,10,0,8,1.0,0,0,3,1,8,1.0,asocial
01JW02A8M61H4244YENRK5H5S5,10,1,8,1.0,0,0,15,1,8,1.0,asocial
01JW02A8M61H4244YENRK5H5S5,10,2,8,1.0,0,0,10,0,8,1.0,asocial
01JW02A8M61H4244YENRK5H5S5,10,3,8,1.0,0,0,9,2,8,1.0,asocial
01JW02A8M61H4244YENRK5H5S5,10,4,8,1.0,0,0,2,1,8,1.0,asocial
01JW02A8M61H4244YENRK5H5S5,10,5,8,1.0,0,0,2,1,8,1.0,asocial
01JW02A8M61H4244YENRK5H5S5,10,6,8,1.0,0,0,11,0,8,1.0,asocial
01JW02A8M61H4244YENRK5H5S5,10,7,8,1.0,0,0,18,0,8,1.0,asocial
01JW02A8M61H4244YENRK5H5S5,10,8,8,1.0,9,0,9,0,8,1.0,asocial
01JW02A8M61H4244YENRK5H5S5,10,9,8,1.0,0,0,5,0,8,1.0,asocial
01JW02A8M61H4244YENRK5H5S5,11,0,8,0.0,0,0,3,1,8,1.0,asocial
01JW02A8M61H4244YENRK5H5S5,11,1,8,0.0,0,0,17,1,8,1.0,asocial
01JW02A8M61H4244YENRK5H5S5,11,2,8,0.0,0,0,12,0,8,1.0,asocial
01JW02A8M61H4244YENRK5H5S5,11,3,8,0.0,0,0,10,2,8,1.0,asocial
01JW02A8M61H4244YENRK5H5S5,11,4,8,0.0,0,0,2,1,8,1.0,asocial
01JW02A8M61H4244YENRK5H5S5,11,5,8,0.0,0,0,3,1,8,1.0,asocial
01JW02A8M61H4244YENRK5H5S5,11,6,8,0.0,0,0,12,0,8,1.0,asocial
01JW02A8M61H4244YENRK5H5S5,11,7,8,0.0,0,0,19,1,8,1.0,asocial
01JW02A8M61H4244YENRK5H5S5,11,8,8,0.0,10,0,10,0,8,1.0,asocial
01JW02A8M61H4244YENRK5H5S5,11,9,8,0.0,0,0,5,0,8,1.0,asocial
01JW02A8M61H4244YENRK5H5S5,12,0,8,1.0,0,0,3,1,8,0.0,asocial
01JW02A8M61H4244YENRK5H5S5,12,1,8,1.0,0,0,18,1,8,0.0,asocial
01JW02A8M61H4244YENRK5H5S5,12,2,8,1.0,0,0,14,0,8,0.0,asocial
01JW02A8M61H4244YENRK5H5S5,12,3,8,1.0,0,0,11,2,8,0.0,asocial
01JW02A8M61H4244YENRK5H5S5,12,4,8,1.0,0,0,2,1,8,0.0,asocial
01JW02A8M61H4244YENRK5H5S5,12,5,8,1.0,0,0,3,1,8,0.0,asocial
01JW02A8M61H4244YENRK5H5S5,12,6,8,1.0,0,0,13,0,8,0.0,asocial
01JW02A8M61H4244YENRK5H5S5,12,7,8,1.0,0,0,20,1,8,0.0,asocial
01JW02A8M61H4244YENRK5H5S5,12,8,8,1.0,10,1,11,1,8,0.0,asocial
01JW02A8M61H4244YENRK5H5S5,12,9,8,1.0,0,0,6,1,8,0.0,asocial
01JW02A8M61H4244YENRK5H5S5,13,0,8,1.0,0,0,4,1,8,1.0,asocial
01JW02A8M61H4244YENRK5H5S5,13,1,8,1.0,0,0,19,1,8,1.0,asocial
01JW02A8M61H4244YENRK5H5S5,13,2,8,1.0,0,0,16,0,8,1.0,asocial
01JW02A8M61H4244YENRK5H5S5,13,3,8,1.0,0,0,12,2,8,1.0,asocial
01JW02A8M61H4244YENRK5H5S5,13,4,8,1.0,0,0,2,1,8,1.0,asocial
01JW02A8M61H4244YENRK5H5S5,13,5,8,1.0,0,0,4,1,8,1.0,asocial
01JW02A8M61H4244YENRK5H5S5,13,6,8,1.0,0,0,14,0,8,1.0,asocial
01JW02A8M61H4244YENRK5H5S5,13,7,8,1.0,0,0,21,1,8,1.0,asocial
01JW02A8M61H4244YENRK5H5S5,13,8,8,1.0,11,1,12,1,8,1.0,asocial
01JW02A8M61H4244YENRK5H5S5,13,9,8,1.0,0,0,7,1,8,1.0,asocial
01JW02A8M61H4244YENRK5H5S5,14,0,8,0.0,0,0,5,1,8,1.0,asocial
01JW02A8M61H4244YENRK5H5S5,14,1,8,0.0,0,0,20,1,8,1.0,asocial
01JW02A8M61H4244YENRK5H5S5,14,2,8,0.0,0,0,19,0,8,1.0,asocial
01JW02A8M61H4244YENRK5H5S5,14,3,8,0.0,0,0,13,2,8,1.0,asocial
01JW02A8M61H4244YENRK5H5S5,14,4,8,0.0,0,0,2,1,8,1.0,asocial
01JW02A8M61H4244YENRK5H5S5,14,5,8,0.0,0,0,5,1,8,1.0,asocial
01JW02A8M61H4244YENRK5H5S5,14,6,8,0.0,0,0,15,0,8,1.0,asocial
01JW02A8M61H4244YENRK5H5S5,14,7,8,0.0,0,0,22,1,8,1.0,asocial
01JW02A8M61H4244YENRK5H5S5,14,8,8,0.0,12,1,13,1,8,1.0,asocial
01JW02A8M61H4244YENRK5H5S5,14,9,8,0.0,0,0,7,1,8,1.0,asocial
01JW02A8M61H4244YENRK5H5S5,15,0,8,1.0,0,0,5,1,8,0.0,asocial
01JW02A8M61H4244YENRK5H5S5,15,1,8,1.0,0,0,21,1,8,0.0,asocial
01JW02A8M61H4244YENRK5H5S5,15,2,8,1.0,0,0,21,0,8,0.0,asocial
01JW02A8M61H4244YENRK5H5S5,15,3,8,1.0,0,0,14,2,8,0.0,asocial
01JW02A8M61H4244YENRK5H5S5,15,4,8,1.0,0,0,3,1,8,0.0,asocial
01JW02A8M61H4244YENRK5H5S5,15,5,8,1.0,0,0,5,1,8,0.0,asocial
01JW02A8M61H4244YENRK5H5S5,15,6,8,1.0,0,0,17,0,8,0.0,asocial
01JW02A8M61H4244YENRK5H5S5,15,7,8,1.0,0,0,23,1,8,0.0,asocial
01JW02A8M61H4244YENRK5H5S5,15,8,8,1.0,12,2,14,2,8,0.0,asocial
01JW02A8M61H4244YENRK5H5S5,15,9,8,1.0,0,0,7,1,8,0.0,asocial
01JW02A8M61H4244YENRK5H5S5,16,0,8,1.0,0,0,5,1,8,1.0,asocial
01JW02A8M61H4244YENRK5H5S5,16,1,8,1.0,0,0,22,1,8,1.0,asocial
01JW02A8M61H4244YENRK5H5S5,16,2,8,1.0,0,0,22,1,8,1.0,asocial
01JW02A8M61H4244YENRK5H5S5,16,3,8,1.0,0,0,15,2,8,1.0,asocial
01JW02A8M61H4244YENRK5H5S5,16,4,8,1.0,0,0,4,1,8,1.0,asocial
01JW02A8M61H4244YENRK5H5S5,16,5,8,1.0,0,0,5,1,8,1.0,asocial
01JW02A8M61H4244YENRK5H5S5,16,6,8,1.0,0,0,19,0,8,1.0,asocial
01JW02A8M61H4244YENRK5H5S5,16,7,8,1.0,0,0,24,1,8,1.0,asocial
01JW02A8M61H4244YENRK5H5S5,16,8,8,1.0,13,2,16,2,8,1.0,asocial
01JW02A8M61H4244YENRK5H5S5,16,9,8,1.0,0,0,7,1,8,1.0,asocial
01JW02A8M61H4244YENRK5H5S5,17,0,8,0.0,0,0,5,1,8,1.0,asocial
01JW02A8M61H4244YENRK5H5S5,17,1,8,0.0,0,0,25,1,8,1.0,asocial
01JW02A8M61H4244YENRK5H5S5,17,2,8,0.0,0,0,23,1,8,1.0,asocial
01JW02A8M61H4244YENRK5H5S5,17,3,8,0.0,0,0,16,2,8,1.0,asocial
01JW02A8M61H4244YENRK5H5S5,17,4,8,0.0,0,0,4,1,8,1.0,asocial
01JW02A8M61H4244YENRK5H5S5,17,5,8,0.0,0,0,5,1,8,1.0,asocial
01JW02A8M61H4244YENRK5H5S5,17,6,8,0.0,0,0,21,0,8,1.0,asocial
01JW02A8M61H4244YENRK5H5S5,17,7,8,0.0,0,0,24,2,8,1.0,asocial
01JW02A8M61H4244YENRK5H5S5,17,8,8,0.0,14,2,18,2,8,1.0,asocial
01JW02A8M61H4244YENRK5H5S5,17,9,8,0.0,0,0,7,1,8,1.0,asocial
01JW02A8M61H4244YENRK5H5S5,18,0,8,1.0,0,0,5,1,8,0.0,asocial
01JW02A8M61H4244YENRK5H5S5,18,1,8,1.0,0,0,26,1,8,0.0,asocial
01JW02A8M61H4244YENRK5H5S5,18,2,8,1.0,0,0,24,1,8,0.0,asocial
01JW02A8M61H4244YENRK5H5S5,18,3,8,1.0,0,0,17,2,8,0.0,asocial
01JW02A8M61H4244YENRK5H5S5,18,4,8,1.0,0,0,5,1,8,0.0,asocial
01JW02A8M61H4244YENRK5H5S5,18,5,8,1.0,0,0,6,1,8,0.0,asocial
01JW02A8M61H4244YENRK5H5S5,18,6,8,1.0,0,0,21,1,8,0.0,asocial
01JW02A8M61H4244YENRK5H5S5,18,7,8,1.0,0,0,26,2,8,0.0,asocial
01JW02A8M61H4244YENRK5H5S5,18,8,8,1.0,14,3,18,3,8,0.0,asocial
01JW02A8M61H4244YENRK5H5S5,18,9,8,1.0,0,0,8,1,8,0.0,asocial
01JW02A8M61H4244YENRK5H5S5,19,0,8,1.0,0,0,6,1,8,1.0,asocial
01JW02A8M61H4244YENRK5H5S5,19,1,8,1.0,0,0,27,1,8,1.0,asocial
01JW02A8M61H4244YENRK5H5S5,19,2,8,1.0,0,0,25,1,8,1.0,asocial
01JW02A8M61H4244YENRK5H5S5,19,3,8,1.0,0,0,19,2,8,1.0,asocial
01JW02A8M61H4244YENRK5H5S5,19,4,8,1.0,0,0,5,1,8,1.0,asocial
01JW02A8M61H4244YENRK5H5S5,19,5,8,1.0,0,0,6,1,8,1.0,asocial
01JW02A8M61H4244YENRK5H5S5,19,6,8,1.0,0,0,24,1,8,1.0,asocial
01JW02A8M61H4244YENRK5H5S5,19,7,8,1.0,0,0,27,2,8,1.0,asocial
01JW02A8M61H4244YENRK5H5S5,19,8,8,1.0,15,3,19,3,8,1.0,asocial
01JW02A8M61H4244YENRK5H5S5,19,9,8,1.0,0,0,8,1,8,1.0,asocial
01JW02A8M61H4244YENRK5H5S5,20,0,8,1.0,0,0,6,1,8,1.0,asocial
01JW02A8M61H4244YENRK5H5S5,20,1,8,1.0,0,0,28,1,8,1.0,asocial
01JW02A8M61H4244YENRK5H5S5,20,2,8,1.0,0,0,26,1,8,1.0,asocial
01JW02A8M61H4244YENRK5H5S5,20,3,8,1.0,0,0,20,2,8,1.0,asocial
01JW02A8M61H4244YENRK5H5S5,20,4,8,1.0,0,0,6,1,8,1.0,asocial
01JW02A8M61H4244YENRK5H5S5,20,5,8,1.0,0,0,6,1,8,1.0,asocial
01JW02A8M61H4244YENRK5H5S5,20,6,8,1.0,0,0,25,1,8,1.0,asocial
01JW02A8M61H4244YENRK5H5S5,20,7,8,1.0,0,0,29,2,8,1.0,asocial
01JW02A8M61H4244YENRK5H5S5,20,8,8,1.0,16,3,21,3,8,1.0,asocial
01JW02A8M61H4244YENRK5H5S5,20,9,8,1.0,0,0,9,1,8,1.0,asocial
01JW02A8M61H4244YENRK5H5S5,21,0,8,1.0,0,0,6,1,8,1.0,asocial
01JW02A8M61H4244YENRK5H5S5,21,1,8,1.0,0,0,31,2,8,1.0,asocial
01JW02A8M61H4244YENRK5H5S5,21,2,8,1.0,0,0,27,1,8,1.0,asocial
01JW02A8M61H4244YENRK5H5S5,21,3,8,1.0,0,0,21,2,8,1.0,asocial
01JW02A8M61H4244YENRK5H5S5,21,4,8,1.0,0,0,6,1,8,1.0,asocial
01JW02A8M61H4244YENRK5H5S5,21,5,8,1.0,0,0,6,1,8,1.0,asocial
01JW02A8M61H4244YENRK5H5S5,21,6,8,1.0,0,0,25,1,8,1.0,asocial
01JW02A8M61H4244YENRK5H5S5,21,7,8,1.0,0,0,30,3,8,1.0,asocial
01JW02A8M61H4244YENRK5H5S5,21,8,8,1.0,17,3,22,3,8,1.0,asocial
01JW02A8M61H4244YENRK5H5S5,21,9,8,1.0,0,0,10,1,8,1.0,asocial
01JW02A8M61H4244YENRK5H5S5,22,0,8,0.0,0,0,7,1,8,1.0,asocial
01JW02A8M61H4244YENRK5H5S5,22,1,8,0.0,0,0,32,2,8,1.0,asocial
01JW02A8M61H4244YENRK5H5S5,22,2,8,0.0,0,0,28,1,8,1.0,asocial
01JW02A8M61H4244YENRK5H5S5,22,3,8,0.0,0,0,22,2,8,1.0,asocial
01JW02A8M61H4244YENRK5H5S5,22,4,8,0.0,0,0,7,1,8,1.0,asocial
01JW02A8M61H4244YENRK5H5S5,22,5,8,0.0,0,0,6,1,8,1.0,asocial
01JW02A8M61H4244YENRK5H5S5,22,6,8,0.0,0,0,25,1,8,1.0,asocial
01JW02A8M61H4244YENRK5H5S5,22,7,8,0.0,0,0,31,4,8,1.0,asocial
01JW02A8M61H4244YENRK5H5S5,22,8,8,0.0,18,3,23,3,8,1.0,asocial
01JW02A8M61H4244YENRK5H5S5,22,9,8,0.0,0,0,12,1,8,1.0,asocial
01JW02A8M61H4244YENRK5H5S5,23,0,8,1.0,0,0,7,1,8,0.0,asocial
01JW02A8M61H4244YENRK5H5S5,23,1,8,1.0,0,0,33,2,8,0.0,asocial
01JW02A8M61H4244YENRK5H5S5,23,2,8,1.0,0,0,30,1,8,0.0,asocial
01JW02A8M61H4244YENRK5H5S5,23,3,8,1.0,0,0,23,2,8,0.0,asocial
01JW02A8M61H4244YENRK5H5S5,23,4,8,1.0,0,0,7,1,8,0.0,asocial
01JW02A8M61H4244YENRK5H5S5,23,5,8,1.0,0,0,7,1,8,0.0,asocial
01JW02A8M61H4244YENRK5H5S5,23,6,8,1.0,0,0,25,1,8,0.0,asocial
01JW02A8M61H4244YENRK5H5S5,23,7,8,1.0,0,0,32,4,8,0.0,asocial
01JW02A8M61H4244YENRK5H5S5,23,8,8,1.0,18,4,24,4,8,0.0,asocial
01JW02A8M61H4244YENRK5H5S5,23,9,8,1.0,0,0,14,1,8,0.0,asocial
01JW02A8M61H4244YENRK5H5S5,24,0,8,1.0,0,0,7,1,8,1.0,asocial
01JW02A8M61H4244YENRK5H5S5,24,1,8,1.0,0,0,34,2,8,1.0,asocial
01JW02A8M61H4244YENRK5H5S5,24,2,8,1.0,0,0,31,1,8,1.0,asocial
01JW02A8M61H4244YENRK5H5S5,24,3,8,1.0,0,0,23,3,8,1.0,asocial
01JW02A8M61H4244YENRK5H5S5,24,4,8,1.0,0,0,7,1,8,1.0,asocial
01JW02A8M61H4244YENRK5H5S5,24,5,8,1.0,0,0,8,1,8,1.0,asocial
01JW02A8M61H4244YENRK5H5S5,24,6,8,1.0,0,0,26,1,8,1.0,asocial
01JW02A8M61H4244YENRK5H5S5,24,7,8,1.0,0,0,32,5,8,1.0,asocial
01JW02A8M61H4244YENRK5H5S5,24,8,8,1.0,19,4,26,4,8,1.0,asocial
01JW02A8M61H4244YENRK5H5S5,24,9,8,1.0,0,0,16,1,8,1.0,asocial
01JW02A8M61H4244YENRK5H5S5,25,0,8,1.0,0,0,7,1,8,1.0,asocial
01JW02A8M61H4244YENRK5H5S5,25,1,8,1.0,0,0,35,2,8,1.0,asocial
01JW02A8M61H4244YENRK5H5S5,25,2,8,1.0,0,0,33,1,8,1.0,asocial
01JW02A8M61H4244YENRK5H5S5,25,3,8,1.0,0,0,24,3,8,1.0,asocial
01JW02A8M61H4244YENRK5H5S5,25,4,8,1.0,0,0,7,1,8,1.0,asocial
01JW02A8M61H4244YENRK5H5S5,25,5,8,1.0,0,0,10,1,8,1.0,asocial
01JW02A8M61H4244YENRK5H5S5,25,6,8,1.0,0,0,26,1,8,1.0,asocial
01JW02A8M61H4244YENRK5H5S5,25,7,8,1.0,0,0,34,5,8,1.0,asocial
01JW02A8M61H4244YENRK5H5S5,25,8,8,1.0,20,4,27,4,8,1.0,asocial
01JW02A8M61H4244YENRK5H5S5,25,9,8,1.0,0,0,17,1,8,1.0,asocial
01JW02A8M61H4244YENRK5H5S5,26,0,8,1.0,0,0,7,1,8,1.0,asocial
01JW02A8M61H4244YENRK5H5S5,26,1,8,1.0,0,0,37,2,8,1.0,asocial
01JW02A8M61H4244YENRK5H5S5,26,2,8,1.0,0,0,35,1,8,1.0,asocial
01JW02A8M61H4244YENRK5H5S5,26,3,8,1.0,0,0,26,3,8,1.0,asocial
01JW02A8M61H4244YENRK5H5S5,26,4,8,1.0,0,0,7,1,8,1.0,asocial
01JW02A8M61H4244YENRK5H5S5,26,5,8,1.0,0,0,11,1,8,1.0,asocial
01JW02A8M61H4244YENRK5H5S5,26,6,8,1.0,0,0,26,1,8,1.0,asocial
01JW02A8M61H4244YENRK5H5S5,26,7,8,1.0,0,0,35,5,8,1.0,asocial
01JW02A8M61H4244YENRK5H5S5,26,8,8,1.0,21,4,28,4,8,1.0,asocial
01JW02A8M61H4244YENRK5H5S5,26,9,8,1.0,0,0,18,1,8,1.0,asocial
01JW02A8M61H4244YENRK5H5S5,27,0,8,1.0,0,0,7,2,8,1.0,asocial
01JW02A8M61H4244YENRK5H5S5,27,1,8,1.0,0,0,39,2,8,1.0,asocial
01JW02A8M61H4244YENRK5H5S5,27,2,8,1.0,0,0,36,1,8,1.0,asocial
01JW02A8M61H4244YENRK5H5S5,27,3,8,1.0,0,0,27,3,8,1.0,asocial
01JW02A8M61H4244YENRK5H5S5,27,4,8,1.0,0,0,7,1,8,1.0,asocial
01JW02A8M61H4244YENRK5H5S5,27,5,8,1.0,0,0,12,2,8,1.0,asocial
01JW02A8M61H4244YENRK5H5S5,27,6,8,1.0,0,0,26,1,8,1.0,asocial
01JW02A8M61H4244YENRK5H5S5,27,7,8,1.0,0,0,36,5,8,1.0,asocial
01JW02A8M61H4244YENRK5H5S5,27,8,8,1.0,22,4,29,4,8,1.0,asocial
01JW02A8M61H4244YENRK5H5S5,27,9,8,1.0,0,0,19,1,8,1.0,asocial
01JW02A8M61H4244YENRK5H5S5,28,0,8,1.0,0,0,7,2,8,1.0,asocial
01JW02A8M61H4244YENRK5H5S5,28,1,8,1.0,0,0,40,2,8,1.0,asocial
01JW02A8M61H4244YENRK5H5S5,28,2,8,1.0,0,0,38,2,8,1.0,asocial
01JW02A8M61H4244YENRK5H5S5,28,3,8,1.0,0,0,28,4,8,1.0,asocial
01JW02A8M61H4244YENRK5H5S5,28,4,8,1.0,0,0,7,1,8,1.0,asocial
01JW02A8M61H4244YENRK5H5S5,28,5,8,1.0,0,0,13,2,8,1.0,asocial
01JW02A8M61H4244YENRK5H5S5,28,6,8,1.0,0,0,26,1,8,1.0,asocial
01JW02A8M61H4244YENRK5H5S5,28,7,8,1.0,0,0,37,5,8,1.0,asocial
01JW02A8M61H4244YENRK5H5S5,28,8,8,1.0,23,4,30,4,8,1.0,asocial
01JW02A8M61H4244YENRK5H5S5,28,9,8,1.0,0,0,20,1,8,1.0,asocial
01JW02A8M61H4244YENRK5H5S5,29,0,8,1.0,0,0,7,2,8,1.0,asocial
01JW02A8M61H4244YENRK5H5S5,29,1,8,1.0,0,0,42,2,8,1.0,asocial
01JW02A8M61H4244YENRK5H5S5,29,2,8,1.0,0,0,40,2,8,1.0,asocial
01JW02A8M61H4244YENRK5H5S5,29,3,8,1.0,0,0,29,4,8,1.0,asocial
01JW02A8M61H4244YENRK5H5S5,29,4,8,1.0,0,0,7,1,8,1.0,asocial
01JW02A8M61H4244YENRK5H5S5,29,5,8,1.0,0,0,13,2,8,1.0,asocial
01JW02A8M61H4244YENRK5H5S5,29,6,8,1.0,0,0,26,1,8,1.0,asocial
01JW02A8M61H4244YENRK5H5S5,29,7,8,1.0,0,0,39,5,8,1.0,asocial
01JW02A8M61H4244YENRK5H5S5,29,8,8,1.0,24,4,32,4,8,1.0,asocial
01JW02A8M61H4244YENRK5H5S5,29,9,8,1.0,0,0,21,1,8,1.0,asocial
01JW02A8M61H4244YENRK5H5S5,30,0,8,1.0,0,0,7,2,8,1.0,asocial
01JW02A8M61H4244YENRK5H5S5,30,1,8,1.0,0,0,44,2,8,1.0,asocial
01JW02A8M61H4244YENRK5H5S5,30,2,8,1.0,0,0,42,2,8,1.0,asocial
01JW02A8M61H4244YENRK5H5S5,30,3,8,1.0,0,0,31,4,8,1.0,asocial
01JW02A8M61H4244YENRK5H5S5,30,4,8,1.0,0,0,7,1,8,1.0,asocial
01JW02A8M61H4244YENRK5H5S5,30,5,8,1.0,0,0,13,2,8,1.0,asocial
01JW02A8M61H4244YENRK5H5S5,30,6,8,1.0,0,0,27,1,8,1.0,asocial
01JW02A8M61H4244YENRK5H5S5,30,7,8,1.0,0,0,40,5,8,1.0,asocial
01JW02A8M61H4244YENRK5H5S5,30,8,8,1.0,25,4,33,4,8,1.0,asocial
01JW02A8M61H4244YENRK5H5S5,30,9,8,1.0,0,0,22,1,8,1.0,asocial
01JW02A8M61H4244YENRK5H5S5,31,0,8,1.0,0,0,7,2,8,1.0,asocial
01JW02A8M61H4244YENRK5H5S5,31,1,8,1.0,0,0,45,2,8,1.0,asocial
01JW02A8M61H4244YENRK5H5S5,31,2,8,1.0,0,0,44,3,8,1.0,asocial
01JW02A8M61H4244YENRK5H5S5,31,3,8,1.0,0,0,32,4,8,1.0,asocial
01JW02A8M61H4244YENRK5H5S5,31,4,8,1.0,0,0,7,1,8,1.0,asocial
01JW02A8M61H4244YENRK5H5S5,31,5,8,1.0,0,0,14,2,8,1.0,asocial
01JW02A8M61H4244YENRK5H5S5,31,6,8,1.0,0,0,28,1,8,1.0,asocial
01JW02A8M61H4244YENRK5H5S5,31,7,8,1.0,0,0,41,5,8,1.0,asocial
01JW02A8M61H4244YENRK5H5S5,31,8,8,1.0,26,4,34,4,8,1.0,asocial
01JW02A8M61H4244YENRK5H5S5,31,9,8,1.0,0,0,23,1,8,1.0,asocial
01JW02A8M61H4244YENRK5H5S5,32,0,8,0.0,0,0,7,2,8,1.0,asocial
01JW02A8M61H4244YENRK5H5S5,32,1,8,0.0,0,0,46,2,8,1.0,asocial
01JW02A8M61H4244YENRK5H5S5,32,2,8,0.0,0,0,47,3,8,1.0,asocial
01JW02A8M61H4244YENRK5H5S5,32,3,8,0.0,0,0,34,4,8,1.0,asocial
01JW02A8M61H4244YENRK5H5S5,32,4,8,0.0,0,0,8,1,8,1.0,asocial
01JW02A8M61H4244YENRK5H5S5,32,5,8,0.0,0,0,14,2,8,1.0,asocial
01JW02A8M61H4244YENRK5H5S5,32,6,8,0.0,0,0,28,1,8,1.0,asocial
01JW02A8M61H4244YENRK5H5S5,32,7,8,0.0,0,0,42,5,8,1.0,asocial
01JW02A8M61H4244YENRK5H5S5,32,8,8,0.0,27,4,35,4,8,1.0,asocial
01JW02A8M61H4244YENRK5H5S5,32,9,8,0.0,0,0,24,1,8,1.0,asocial
01JW02A8M61H4244YENRK5H5S5,33,0,8,1.0,0,0,8,2,8,0.0,asocial
01JW02A8M61H4244YENRK5H5S5,33,1,8,1.0,0,0,47,2,8,0.0,asocial
01JW02A8M61H4244YENRK5H5S5,33,2,8,1.0,0,0,49,3,8,0.0,asocial
01JW02A8M61H4244YENRK5H5S5,33,3,8,1.0,0,0,35,4,8,0.0,asocial
01JW02A8M61H4244YENRK5H5S5,33,4,8,1.0,0,0,8,1,8,0.0,asocial
01JW02A8M61H4244YENRK5H5S5,33,5,8,1.0,0,0,15,2,8,0.0,asocial
01JW02A8M61H4244YENRK5H5S5,33,6,8,1.0,0,0,28,1,8,0.0,asocial
01JW02A8M61H4244YENRK5H5S5,33,7,8,1.0,0,0,44,5,8,0.0,asocial
01JW02A8M61H4244YENRK5H5S5,33,8,8,1.0,27,5,35,5,8,0.0,asocial
01JW02A8M61H4244YENRK5H5S5,33,9,8,1.0,0,0,25,1,8,0.0,asocial
01JW02A8M61H4244YENRK5H5S5,34,0,8,1.0,0,0,8,2,8,1.0,asocial
01JW02A8M61H4244YENRK5H5S5,34,1,8,1.0,0,0,48,2,8,1.0,asocial
01JW02A8M61H4244YENRK5H5S5,34,2,8,1.0,0,0,50,4,8,1.0,asocial
01JW02A8M61H4244YENRK5H5S5,34,3,8,1.0,0,0,35,5,8,1.0,asocial
01JW02A8M61H4244YENRK5H5S5,34,4,8,1.0,0,0,8,1,8,1.0,asocial
01JW02A8M61H4244YENRK5H5S5,34,5,8,1.0,0,0,16,2,8,1.0,asocial
01JW02A8M61H4244YENRK5H5S5,34,6,8,1.0,0,0,30,1,8,1.0,asocial
01JW02A8M61H4244YENRK5H5S5,34,7,8,1.0,0,0,45,5,8,1.0,asocial
01JW02A8M61H4244YENRK5H5S5,34,8,8,1.0,28,5,36,5,8,1.0,asocial
01JW02A8M61H4244YENRK5H5S5,34,9,8,1.0,0,0,26,1,8,1.0,asocial
01JW02A8M61H4244YENRK5H5S5,35,0,8,1.0,0,0,8,2,8,1.0,asocial
01JW02A8M61H4244YENRK5H5S5,35,1,8,1.0,0,0,50,2,8,1.0,asocial
01JW02A8M61H4244YENRK5H5S5,35,2,8,1.0,0,0,52,4,8,1.0,asocial
01JW02A8M61H4244YENRK5H5S5,35,3,8,1.0,0,0,36,5,8,1.0,asocial
01JW02A8M61H4244YENRK5H5S5,35,4,8,1.0,0,0,8,2,8,1.0,asocial
01JW02A8M61H4244YENRK5H5S5,35,5,8,1.0,0,0,16,2,8,1.0,asocial
01JW02A8M61H4244YENRK5H5S5,35,6,8,1.0,0,0,30,1,8,1.0,asocial
01JW02A8M61H4244YENRK5H5S5,35,7,8,1.0,0,0,47,5,8,1.0,asocial
01JW02A8M61H4244YENRK5H5S5,35,8,8,1.0,29,5,37,5,8,1.0,asocial
01JW02A8M61H4244YENRK5H5S5,35,9,8,1.0,0,0,27,1,8,1.0,asocial
01JW02A8M61H4244YENRK5H5S5,36,0,8,1.0,0,0,8,2,8,1.0,asocial
01JW02A8M61H4244YENRK5H5S5,36,1,8,1.0,0,0,53,2,8,1.0,asocial
01JW02A8M61H4244YENRK5H5S5,36,2,8,1.0,0,0,52,5,8,1.0,asocial
01JW02A8M61H4244YENRK5H5S5,36,3,8,1.0,0,0,37,5,8,1.0,asocial
01JW02A8M61H4244YENRK5H5S5,36,4,8,1.0,0,0,8,2,8,1.0,asocial
01JW02A8M61H4244YENRK5H5S5,36,5,8,1.0,0,0,16,2,8,1.0,asocial
01JW02A8M61H4244YENRK5H5S5,36,6,8,1.0,0,0,31,1,8,1.0,asocial
01JW02A8M61H4244YENRK5H5S5,36,7,8,1.0,0,0,49,5,8,1.0,asocial
01JW02A8M61H4244YENRK5H5S5,36,8,8,1.0,30,5,38,5,8,1.0,asocial
01JW02A8M61H4244YENRK5H5S5,36,9,8,1.0,0,0,28,1,8,1.0,asocial
01JW02A8M61H4244YENRK5H5S5,37,0,8,1.0,0,0,8,2,8,1.0,asocial
01JW02A8M61H4244YENRK5H5S5,37,1,8,1.0,0,0,54,2,8,1.0,asocial
01JW02A8M61H4244YENRK5H5S5,37,2,8,1.0,0,0,53,5,8,1.0,asocial
01JW02A8M61H4244YENRK5H5S5,37,3,8,1.0,0,0,39,5,8,1.0,asocial
01JW02A8M61H4244YENRK5H5S5,37,4,8,1.0,0,0,8,3,8,1.0,asocial
01JW02A8M61H4244YENRK5H5S5,37,5,8,1.0,0,0,16,2,8,1.0,asocial
01JW02A8M61H4244YENRK5H5S5,37,6,8,1.0,0,0,31,1,8,1.0,asocial
01JW02A8M61H4244YENRK5H5S5,37,7,8,1.0,0,0,50,6,8,1.0,asocial
01JW02A8M61H4244YENRK5H5S5,37,8,8,1.0,31,5,39,5,8,1.0,asocial
01JW02A8M61H4244YENRK5H5S5,37,9,8,1.0,0,0,30,1,8,1.0,asocial
01JW02A8M61H4244YENRK5H5S5,38,0,8,1.0,0,0,8,3,8,1.0,asocial
01JW02A8M61H4244YENRK5H5S5,38,1,8,1.0,0,0,56,2,8,1.0,asocial
01JW02A8M61H4244YENRK5H5S5,38,2,8,1.0,0,0,54,5,8,1.0,asocial
01JW02A8M61H4244YENRK5H5S5,38,3,8,1.0,0,0,40,5,8,1.0,asocial
01JW02A8M61H4244YENRK5H5S5,38,4,8,1.0,0,0,8,3,8,1.0,asocial
01JW02A8M61H4244YENRK5H5S5,38,5,8,1.0,0,0,16,2,8,1.0,asocial
01JW02A8M61H4244YENRK5H5S5,38,6,8,1.0,0,0,31,1,8,1.0,asocial
01JW02A8M61H4244YENRK5H5S5,38,7,8,1.0,0,0,52,6,8,1.0,asocial
01JW02A8M61H4244YENRK5H5S5,38,8,8,1.0,32,5,40,5,8,1.0,asocial
01JW02A8M61H4244YENRK5H5S5,38,9,8,1.0,0,0,32,1,8,1.0,asocial
01JW02A8M61H4244YENRK5H5S5,39,0,8,1.0,0,0,9,3,8,1.0,asocial
01JW02A8M61H4244YENRK5H5S5,39,1,8,1.0,0,0,58,2,8,1.0,asocial
01JW02A8M61H4244YENRK5H5S5,39,2,8,1.0,0,0,55,5,8,1.0,asocial
01JW02A8M61H4244YENRK5H5S5,39,3,8,1.0,0,0,41,5,8,1.0,asocial
01JW02A8M61H4244YENRK5H5S5,39,4,8,1.0,0,0,8,3,8,1.0,asocial
01JW02A8M61H4244YENRK5H5S5,39,5,8,1.0,0,0,16,2,8,1.0,asocial
01JW02A8M61H4244YENRK5H5S5,39,6,8,1.0,0,0,32,1,8,1.0,asocial
01JW02A8M61H4244YENRK5H5S5,39,7,8,1.0,0,0,53,6,8,1.0,asocial
01JW02A8M61H4244YENRK5H5S5,39,8,8,1.0,33,5,42,5,8,1.0,asocial
01JW02A8M61H4244YENRK5H5S5,39,9,8,1.0,0,0,33,1,8,1.0,asocial
01JW02A8M61H4244YENRK5H5S5,40,0,8,1.0,0,0,9,3,8,1.0,asocial
01JW02A8M61H4244YENRK5H5S5,40,1,8,1.0,0,0,59,2,8,1.0,asocial
01JW02A8M61H4244YENRK5H5S5,40,2,8,1.0,0,0,57,5,8,1.0,asocial
01JW02A8M61H4244YENRK5H5S5,40,3,8,1.0,0,0,43,5,8,1.0,asocial
01JW02A8M61H4244YENRK5H5S5,40,4,8,1.0,0,0,8,3,8,1.0,asocial
01JW02A8M61H4244YENRK5H5S5,40,5,8,1.0,0,0,16,2,8,1.0,asocial
01JW02A8M61H4244YENRK5H5S5,40,6,8,1.0,0,0,34,1,8,1.0,asocial
01JW02A8M61H4244YENRK5H5S5,40,7,8,1.0,0,0,54,6,8,1.0,asocial
01JW02A8M61H4244YENRK5H5S5,40,8,8,1.0,34,5,43,5,8,1.0,asocial
01JW02A8M61H4244YENRK5H5S5,40,9,8,1.0,0,0,33,2,8,1.0,asocial
01JW02A8M61H4244YENRK5H5S5,41,0,8,1.0,0,0,9,3,8,1.0,asocial
01JW02A8M61H4244YENRK5H5S5,41,1,8,1.0,0,0,60,2,8,1.0,asocial
01JW02A8M61H4244YENRK5H5S5,41,2,8,1.0,0,0,59,5,8,1.0,asocial
01JW02A8M61H4244YENRK5H5S5,41,3,8,1.0,0,0,45,5,8,1.0,asocial
01JW02A8M61H4244YENRK5H5S5,41,4,8,1.0,0,0,8,3,8,1.0,asocial
01JW02A8M61H4244YENRK5H5S5,41,5,8,1.0,0,0,16,2,8,1.0,asocial
01JW02A8M61H4244YENRK5H5S5,41,6,8,1.0,0,0,34,1,8,1.0,asocial
01JW02A8M61H4244YENRK5H5S5,41,7,8,1.0,0,0,55,6,8,1.0,asocial
01JW02A8M61H4244YENRK5H5S5,41,8,8,1.0,35,5,45,5,8,1.0,asocial
01JW02A8M61H4244YENRK5H5S5,41,9,8,1.0,0,0,35,2,8,1.0,asocial
01JW02A8M61H4244YENRK5H5S5,42,0,8,1.0,0,0,10,3,8,1.0,asocial
01JW02A8M61H4244YENRK5H5S5,42,1,8,1.0,0,0,61,2,8,1.0,asocial
01JW02A8M61H4244YENRK5H5S5,42,2,8,1.0,0,0,60,5,8,1.0,asocial
01JW02A8M61H4244YENRK5H5S5,42,3,8,1.0,0,0,46,5,8,1.0,asocial
01JW02A8M61H4244YENRK5H5S5,42,4,8,1.0,0,0,9,3,8,1.0,asocial
01JW02A8M61H4244YENRK5H5S5,42,5,8,1.0,0,0,16,2,8,1.0,asocial
01JW02A8M61H4244YENRK5H5S5,42,6,8,1.0,0,0,36,1,8,1.0,asocial
01JW02A8M61H4244YENRK5H5S5,42,7,8,1.0,0,0,56,6,8,1.0,asocial
01JW02A8M61H4244YENRK5H5S5,42,8,8,1.0,36,5,47,5,8,1.0,asocial
01JW02A8M61H4244YENRK5H5S5,42,9,8,1.0,0,0,35,2,8,1.0,asocial
01JW02A8M61H4244YENRK5H5S5,43,0,8,1.0,0,0,10,3,8,1.0,asocial
01JW02A8M61H4244YENRK5H5S5,43,1,8,1.0,0,0,62,2,8,1.0,asocial
01JW02A8M61H4244YENRK5H5S5,43,2,8,1.0,0,0,61,5,8,1.0,asocial
01JW02A8M61H4244YENRK5H5S5,43,3,8,1.0,0,0,49,5,8,1.0,asocial
01JW02A8M61H4244YENRK5H5S5,43,4,8,1.0,0,0,9,3,8,1.0,asocial
01JW02A8M61H4244YENRK5H5S5,43,5,8,1.0,0,0,16,2,8,1.0,asocial
01JW02A8M61H4244YENRK5H5S5,43,6,8,1.0,0,0,37,1,8,1.0,asocial
01JW02A8M61H4244YENRK5H5S5,43,7,8,1.0,0,0,57,6,8,1.0,asocial
01JW02A8M61H4244YENRK5H5S5,43,8,8,1.0,37,5,49,6,8,1.0,asocial
01JW02A8M61H4244YENRK5H5S5,43,9,8,1.0,0,0,35,2,8,1.0,asocial
01JW02A8M61H4244YENRK5H5S5,44,0,8,1.0,0,0,10,3,8,1.0,asocial
01JW02A8M61H4244YENRK5H5S5,44,1,8,1.0,0,0,63,2,8,1.0,asocial
01JW02A8M61H4244YENRK5H5S5,44,2,8,1.0,0,0,62,5,8,1.0,asocial
01JW02A8M61H4244YENRK5H5S5,44,3,8,1.0,0,0,50,5,8,1.0,asocial
01JW02A8M61H4244YENRK5H5S5,44,4,8,1.0,0,0,9,3,8,1.0,asocial
01JW02A8M61H4244YENRK5H5S5,44,5,8,1.0,0,0,16,2,8,1.0,asocial
01JW02A8M61H4244YENRK5H5S5,44,6,8,1.0,0,0,38,1,8,1.0,asocial
01JW02A8M61H4244YENRK5H5S5,44,7,8,1.0,0,0,59,6,8,1.0,asocial
01JW02A8M61H4244YENRK5H5S5,44,8,8,1.0,38,5,51,7,8,1.0,asocial
01JW02A8M61H4244YENRK5H5S5,44,9,8,1.0,0,0,36,2,8,1.0,asocial
01JW02A8M61H4244YENRK5H5S5,45,0,8,1.0,0,0,10,3,8,1.0,asocial
01JW02A8M61H4244YENRK5H5S5,45,1,8,1.0,0,0,65,2,8,1.0,asocial
01JW02A8M61H4244YENRK5H5S5,45,2,8,1.0,0,0,63,5,8,1.0,asocial
01JW02A8M61H4244YENRK5H5S5,45,3,8,1.0,0,0,51,5,8,1.0,asocial
01JW02A8M61H4244YENRK5H5S5,45,4,8,1.0,0,0,9,3,8,1.0,asocial
01JW02A8M61H4244YENRK5H5S5,45,5,8,1.0,0,0,16,2,8,1.0,asocial
01JW02A8M61H4244YENRK5H5S5,45,6,8,1.0,0,0,39,1,8,1.0,asocial
01JW02A8M61H4244YENRK5H5S5,45,7,8,1.0,0,0,61,6,8,1.0,asocial
01JW02A8M61H4244YENRK5H5S5,45,8,8,1.0,39,5,54,7,8,1.0,asocial
01JW02A8M61H4244YENRK5H5S5,45,9,8,1.0,0,0,36,2,8,1.0,asocial
01JW02A8M61H4244YENRK5H5S5,46,0,8,1.0,0,0,10,3,8,1.0,asocial
01JW02A8M61H4244YENRK5H5S5,46,1,8,1.0,0,0,66,2,8,1.0,asocial
01JW02A8M61H4244YENRK5H5S5,46,2,8,1.0,0,0,65,6,8,1.0,asocial
01JW02A8M61H4244YENRK5H5S5,46,3,8,1.0,0,0,51,6,8,1.0,asocial
01JW02A8M61H4244YENRK5H5S5,46,4,8,1.0,0,0,9,3,8,1.0,asocial
01JW02A8M61H4244YENRK5H5S5,46,5,8,1.0,0,0,16,2,8,1.0,asocial
01JW02A8M61H4244YENRK5H5S5,46,6,8,1.0,0,0,39,1,8,1.0,asocial
01JW02A8M61H4244YENRK5H5S5,46,7,8,1.0,0,0,62,6,8,1.0,asocial
01JW02A8M61H4244YENRK5H5S5,46,8,8,1.0,40,5,57,7,8,1.0,asocial
01JW02A8M61H4244YENRK5H5S5,46,9,8,1.0,0,0,37,2,8,1.0,asocial
01JW02A8M61H4244YENRK5H5S5,47,0,8,1.0,0,0,10,3,8,1.0,asocial
01JW02A8M61H4244YENRK5H5S5,47,1,8,1.0,0,0,67,2,8,1.0,asocial
01JW02A8M61H4244YENRK5H5S5,47,2,8,1.0,0,0,66,6,8,1.0,asocial
01JW02A8M61H4244YENRK5H5S5,47,3,8,1.0,0,0,52,6,8,1.0,asocial
01JW02A8M61H4244YENRK5H5S5,47,4,8,1.0,0,0,9,3,8,1.0,asocial
01JW02A8M61H4244YENRK5H5S5,47,5,8,1.0,0,0,16,2,8,1.0,asocial
01JW02A8M61H4244YENRK5H5S5,47,6,8,1.0,0,0,41,1,8,1.0,asocial
01JW02A8M61H4244YENRK5H5S5,47,7,8,1.0,0,0,64,6,8,1.0,asocial
01JW02A8M61H4244YENRK5H5S5,47,8,8,1.0,41,5,60,7,8,1.0,asocial
01JW02A8M61H4244YENRK5H5S5,47,9,8,1.0,0,0,37,2,8,1.0,asocial
01JW02A8M61H4244YENRK5H5S5,48,0,8,1.0,0,0,11,3,8,1.0,asocial
01JW02A8M61H4244YENRK5H5S5,48,1,8,1.0,0,0,68,2,8,1.0,asocial
01JW02A8M61H4244YENRK5H5S5,48,2,8,1.0,0,0,67,6,8,1.0,asocial
01JW02A8M61H4244YENRK5H5S5,48,3,8,1.0,0,0,54,6,8,1.0,asocial
01JW02A8M61H4244YENRK5H5S5,48,4,8,1.0,0,0,9,3,8,1.0,asocial
01JW02A8M61H4244YENRK5H5S5,48,5,8,1.0,0,0,16,2,8,1.0,asocial
01JW02A8M61H4244YENRK5H5S5,48,6,8,1.0,0,0,42,1,8,1.0,asocial
01JW02A8M61H4244YENRK5H5S5,48,7,8,1.0,0,0,65,6,8,1.0,asocial
01JW02A8M61H4244YENRK5H5S5,48,8,8,1.0,42,5,63,7,8,1.0,asocial
01JW02A8M61H4244YENRK5H5S5,48,9,8,1.0,0,0,37,2,8,1.0,asocial
01JW02A8M61H4244YENRK5H5S5,49,0,8,1.0,0,0,11,3,8,1.0,asocial
01JW02A8M61H4244YENRK5H5S5,49,1,8,1.0,0,0,69,2,8,1.0,asocial
01JW02A8M61H4244YENRK5H5S5,49,2,8,1.0,0,0,69,6,8,1.0,asocial
01JW02A8M61H4244YENRK5H5S5,49,3,8,1.0,0,0,56,6,8,1.0,asocial
01JW02A8M61H4244YENRK5H5S5,49,4,8,1.0,0,0,9,3,8,1.0,asocial
01JW02A8M61H4244YENRK5H5S5,49,5,8,1.0,0,0,16,3,8,1.0,asocial
01JW02A8M61H4244YENRK5H5S5,49,6,8,1.0,0,0,43,1,8,1.0,asocial
01JW02A8M61H4244YENRK5H5S5,49,7,8,1.0,0,0,65,7,8,1.0,asocial
01JW02A8M61H4244YENRK5H5S5,49,8,8,1.0,43,5,65,7,8,1.0,asocial
01JW02A8M61H4244YENRK5H5S5,49,9,8,1.0,0,0,37,2,8,1.0,asocial
01JW02A8M61H4244YENRK5H5S5,50,0,8,1.0,0,0,11,3,8,1.0,asocial
01JW02A8M61H4244YENRK5H5S5,50,1,8,1.0,0,0,69,3,8,1.0,asocial
01JW02A8M61H4244YENRK5H5S5,50,2,8,1.0,0,0,70,6,8,1.0,asocial
01JW02A8M61H4244YENRK5H5S5,50,3,8,1.0,0,0,58,6,8,1.0,asocial
01JW02A8M61H4244YENRK5H5S5,50,4,8,1.0,0,0,10,3,8,1.0,asocial
01JW02A8M61H4244YENRK5H5S5,50,5,8,1.0,0,0,16,3,8,1.0,asocial
01JW02A8M61H4244YENRK5H5S5,50,6,8,1.0,0,0,43,2,8,1.0,asocial
01JW02A8M61H4244YENRK5H5S5,50,7,8,1.0,0,0,66,7,8,1.0,asocial
01JW02A8M61H4244YENRK5H5S5,50,8,8,1.0,44,5,68,7,8,1.0,asocial
01JW02A8M61H4244YENRK5H5S5,50,9,8,1.0,0,0,37,2,8,1.0,asocial
01JW02A8M61H4244YENRK5H5S5,51,0,8,1.0,0,0,12,3,8,1.0,asocial
01JW02A8M61H4244YENRK5H5S5,51,1,8,1.0,0,0,70,3,8,1.0,asocial
01JW02A8M61H4244YENRK5H5S5,51,2,8,1.0,0,0,71,6,8,1.0,asocial
01JW02A8M61H4244YENRK5H5S5,51,3,8,1.0,0,0,60,6,8,1.0,asocial
01JW02A8M61H4244YENRK5H5S5,51,4,8,1.0,0,0,10,3,8,1.0,asocial
01JW02A8M61H4244YENRK5H5S5,51,5,8,1.0,0,0,16,3,8,1.0,asocial
01JW02A8M61H4244YENRK5H5S5,51,6,8,1.0,0,0,43,2,8,1.0,asocial
01JW02A8M61H4244YENRK5H5S5,51,7,8,1.0,0,0,68,7,8,1.0,asocial
01JW02A8M61H4244YENRK5H5S5,51,8,8,1.0,45,5,70,7,8,1.0,asocial
01JW02A8M61H4244YENRK5H5S5,51,9,8,1.0,0,0,38,2,8,1.0,asocial
01JW02AFEYAGBGPNN4MPBZP5PG,1,0,3,0.0,0,0,0,0,-1,,asocial
01JW02AFEYAGBGPNN4MPBZP5PG,1,1,3,0.0,0,0,0,0,-1,,asocial
01JW02AFEYAGBGPNN4MPBZP5PG,1,2,3,0.0,0,0,0,0,-1,,asocial
01JW02AFEYAGBGPNN4MPBZP5PG,1,3,3,0.0,0,0,0,0,-1,,asocial
01JW02AFEYAGBGPNN4MPBZP5PG,1,4,3,0.0,0,0,0,0,-1,,asocial
01JW02AFEYAGBGPNN4MPBZP5PG,1,5,3,0.0,0,0,0,0,-1,,asocial
01JW02AFEYAGBGPNN4MPBZP5PG,1,6,3,0.0,0,0,0,0,-1,,asocial
01JW02AFEYAGBGPNN4MPBZP5PG,1,7,3,0.0,0,0,0,0,-1,,asocial
01JW02AFEYAGBGPNN4MPBZP5PG,1,8,3,0.0,0,0,0,0,-1,,asocial
01JW02AFEYAGBGPNN4MPBZP5PG,1,9,3,0.0,0,0,0,0,-1,,asocial
01JW02AFEYAGBGPNN4MPBZP5PG,2,0,5,1.0,0,0,1,0,3,0.0,asocial
01JW02AFEYAGBGPNN4MPBZP5PG,2,1,5,1.0,0,0,1,0,3,0.0,asocial
01JW02AFEYAGBGPNN4MPBZP5PG,2,2,5,1.0,0,0,1,0,3,0.0,asocial
01JW02AFEYAGBGPNN4MPBZP5PG,2,3,5,1.0,0,1,0,1,3,0.0,asocial
01JW02AFEYAGBGPNN4MPBZP5PG,2,4,5,1.0,0,0,1,0,3,0.0,asocial
01JW02AFEYAGBGPNN4MPBZP5PG,2,5,5,1.0,0,0,0,1,3,0.0,asocial
01JW02AFEYAGBGPNN4MPBZP5PG,2,6,5,1.0,0,0,1,0,3,0.0,asocial
01JW02AFEYAGBGPNN4MPBZP5PG,2,7,5,1.0,0,0,1,0,3,0.0,asocial
01JW02AFEYAGBGPNN4MPBZP5PG,2,8,5,1.0,0,0,1,0,3,0.0,asocial
01JW02AFEYAGBGPNN4MPBZP5PG,2,9,5,1.0,0,0,1,0,3,0.0,asocial
01JW02AFEYAGBGPNN4MPBZP5PG,3,0,3,1.0,0,0,1,1,5,1.0,asocial
01JW02AFEYAGBGPNN4MPBZP5PG,3,1,3,1.0,0,0,2,0,5,1.0,asocial
01JW02AFEYAGBGPNN4MPBZP5PG,3,2,3,1.0,0,0,2,0,5,1.0,asocial
01JW02AFEYAGBGPNN4MPBZP5PG,3,3,3,1.0,0,1,1,1,5,1.0,asocial
01JW02AFEYAGBGPNN4MPBZP5PG,3,4,3,1.0,0,0,2,0,5,1.0,asocial
01JW02AFEYAGBGPNN4MPBZP5PG,3,5,3,1.0,1,0,1,1,5,1.0,asocial
01JW02AFEYAGBGPNN4MPBZP5PG,3,6,3,1.0,0,0,2,0,5,1.0,asocial
01JW02AFEYAGBGPNN4MPBZP5PG,3,7,3,1.0,0,0,2,0,5,1.0,asocial
01JW02AFEYAGBGPNN4MPBZP5PG,3,8,3,1.0,0,0,2,0,5,1.0,asocial
01JW02AFEYAGBGPNN4MPBZP5PG,3,9,3,1.0,0,0,2,0,5,1.0,asocial
01JW02AFEYAGBGPNN4MPBZP5PG,4,0,1,1.0,0,0,1,1,3,1.0,asocial
01JW02AFEYAGBGPNN4MPBZP5PG,4,1,1,1.0,0,0,3,0,3,1.0,asocial
01JW02AFEYAGBGPNN4MPBZP5PG,4,2,1,1.0,0,0,3,0,3,1.0,asocial
01JW02AFEYAGBGPNN4MPBZP5PG,4,3,1,1.0,1,1,2,2,3,1.0,asocial
01JW02AFEYAGBGPNN4MPBZP5PG,4,4,1,1.0,0,0,2,0,3,1.0,asocial
01JW02AFEYAGBGPNN4MPBZP5PG,4,5,1,1.0,1,0,1,1,3,1.0,asocial
01JW02AFEYAGBGPNN4MPBZP5PG,4,6,1,1.0,0,0,4,0,3,1.0,asocial
01JW02AFEYAGBGPNN4MPBZP5PG,4,7,1,1.0,0,0,5,0,3,1.0,asocial
01JW02AFEYAGBGPNN4MPBZP5PG,4,8,1,1.0,0,0,3,0,3,1.0,asocial
01JW02AFEYAGBGPNN4MPBZP5PG,4,9,1,1.0,0,0,2,0,3,1.0,asocial
01JW02AFEYAGBGPNN4MPBZP5PG,5,0,6,1.0,0,0,1,1,1,1.0,asocial
01JW02AFEYAGBGPNN4MPBZP5PG,5,1,6,1.0,1,0,4,1,1,1.0,asocial
01JW02AFEYAGBGPNN4MPBZP5PG,5,2,6,1.0,0,0,4,0,1,1.0,asocial
01JW02AFEYAGBGPNN4MPBZP5PG,5,3,6,1.0,1,1,3,2,1,1.0,asocial
01JW02AFEYAGBGPNN4MPBZP5PG,5,4,6,1.0,0,0,2,0,1,1.0,asocial
01JW02AFEYAGBGPNN4MPBZP5PG,5,5,6,1.0,1,0,1,1,1,1.0,asocial
01JW02AFEYAGBGPNN4MPBZP5PG,5,6,6,1.0,0,0,6,0,1,1.0,asocial
01JW02AFEYAGBGPNN4MPBZP5PG,5,7,6,1.0,0,0,8,0,1,1.0,asocial
01JW02AFEYAGBGPNN4MPBZP5PG,5,8,6,1.0,0,0,4,0,1,1.0,asocial
01JW02AFEYAGBGPNN4MPBZP5PG,5,9,6,1.0,0,0,2,0,1,1.0,asocial
01JW02AFEYAGBGPNN4MPBZP5PG,6,0,2,1.0,0,0,1,1,6,1.0,asocial
01JW02AFEYAGBGPNN4MPBZP5PG,6,1,2,1.0,1,0,5,1,6,1.0,asocial
01JW02AFEYAGBGPNN4MPBZP5PG,6,2,2,1.0,0,0,5,0,6,1.0,asocial
01JW02AFEYAGBGPNN4MPBZP5PG,6,3,2,1.0,1,1,4,2,6,1.0,asocial
01JW02AFEYAGBGPNN4MPBZP5PG,6,4,2,1.0,0,0,2,1,6,1.0,asocial
01JW02AFEYAGBGPNN4MPBZP5PG,6,5,2,1.0,1,0,1,1,6,1.0,asocial
01JW02AFEYAGBGPNN4MPBZP5PG,6,6,2,1.0,1,0,8,0,6,1.0,asocial
01JW02AFEYAGBGPNN4MPBZP5PG,6,7,2,1.0,0,0,10,0,6,1.0,asocial
01JW02AFEYAGBGPNN4MPBZP5PG,6,8,2,1.0,0,0,5,0,6,1.0,asocial
01JW02AFEYAGBGPNN4MPBZP5PG,6,9,2,1.0,0,0,3,0,6,1.0,asocial
01JW02AFEYAGBGPNN4MPBZP5PG,7,0,7,1.0,0,0,1,1,2,1.0,asocial
01JW02AFEYAGBGPNN4MPBZP5PG,7,1,7,1.0,1,0,8,1,2,1.0,asocial
01JW02AFEYAGBGPNN4MPBZP5PG,7,2,7,1.0,1,0,7,0,2,1.0,asocial
01JW02AFEYAGBGPNN4MPBZP5PG,7,3,7,1.0,1,1,5,2,2,1.0,asocial
01JW02AFEYAGBGPNN4MPBZP5PG,7,4,7,1.0,0,0,2,1,2,1.0,asocial
01JW02AFEYAGBGPNN4MPBZP5PG,7,5,7,1.0,1,0,1,1,2,1.0,asocial
01JW02AFEYAGBGPNN4MPBZP5PG,7,6,7,1.0,1,0,8,0,2,1.0,asocial
01JW02AFEYAGBGPNN4MPBZP5PG,7,7,7,1.0,0,0,12,0,2,1.0,asocial
01JW02AFEYAGBGPNN4MPBZP5PG,7,8,7,1.0,0,0,6,0,2,1.0,asocial
01JW02AFEYAGBGPNN4MPBZP5PG,7,9,7,1.0,0,0,4,0,2,1.0,asocial
01JW02AFEYAGBGPNN4MPBZP5PG,8,0,1,1.0,0,0,1,1,7,1.0,asocial
01JW02AFEYAGBGPNN4MPBZP5PG,8,1,1,1.0,1,0,10,1,7,1.0,asocial
01JW02AFEYAGBGPNN4MPBZP5PG,8,2,1,1.0,1,0,8,0,7,1.0,asocial
01JW02AFEYAGBGPNN4MPBZP5PG,8,3,1,1.0,1,1,6,2,7,1.0,asocial
01JW02AFEYAGBGPNN4MPBZP5PG,8,4,1,1.0,0,0,2,1,7,1.0,asocial
01JW02AFEYAGBGPNN4MPBZP5PG,8,5,1,1.0,1,0,2,1,7,1.0,asocial
01JW02AFEYAGBGPNN4MPBZP5PG,8,6,1,1.0,1,0,9,0,7,1.0,asocial
01JW02AFEYAGBGPNN4MPBZP5PG,8,7,1,1.0,1,0,15,0,7,1.0,asocial
01JW02AFEYAGBGPNN4MPBZP5PG,8,8,1,1.0,0,0,7,0,7,1.0,asocial
01JW02AFEYAGBGPNN4MPBZP5PG,8,9,1,1.0,0,0,4,0,7,1.0,asocial
01JW02AFEYAGBGPNN4MPBZP5PG,9,0,0,1.0,0,0,2,1,1,1.0,asocial
01JW02AFEYAGBGPNN4MPBZP5PG,9,1,0,1.0,2,0,13,1,1,1.0,asocial
01JW02AFEYAGBGPNN4MPBZP5PG,9,2,0,1.0,1,0,9,0,1,1.0,asocial
01JW02AFEYAGBGPNN4MPBZP5PG,9,3,0,1.0,1,1,7,2,1,1.0,asocial
01JW02AFEYAGBGPNN4MPBZP5PG,9,4,0,1.0,0,0,2,1,1,1.0,asocial
01JW02AFEYAGBGPNN4MPBZP5PG,9,5,0,1.0,1,0,2,1,1,1.0,asocial
01JW02AFEYAGBGPNN4MPBZP5PG,9,6,0,1.0,1,0,10,0,1,1.0,asocial
01JW02AFEYAGBGPNN4MPBZP5PG,9,7,0,1.0,1,0,17,0,1,1.0,asocial
01JW02AFEYAGBGPNN4MPBZP5PG,9,8,0,1.0,0,0,8,0,1,1.0,asocial
01JW02AFEYAGBGPNN4MPBZP5PG,9,9,0,1.0,0,0,4,0,1,1.0,asocial
01JW02AFEYAGBGPNN4MPBZP5PG,10,0,5,1.0,1,0,3,1,0,1.0,asocial
01JW02AFEYAGBGPNN4MPBZP5PG,10,1,5,1.0,2,0,15,1,0,1.0,asocial
01JW02AFEYAGBGPNN4MPBZP5PG,10,2,5,1.0,1,0,10,0,0,1.0,asocial
01JW02AFEYAGBGPNN4MPBZP5PG,10,3,5,1.0,1,1,9,2,0,1.0,asocial
01JW02AFEYAGBGPNN4MPBZP5PG,10,4,5,1.0,0,0,2,1,0,1.0,asocial
01JW02AFEYAGBGPNN4MPBZP5PG,10,5,5,1.0,1,0,2,1,0,1.0,asocial
01JW02AFEYAGBGPNN4MPBZP5PG,10,6,5,1.0,1,0,11,0,0,1.0,asocial
01JW02AFEYAGBGPNN4MPBZP5PG,10,7,5,1.0,1,0,18,0,0,1.0,asocial
01JW02AFEYAGBGPNN4MPBZP5PG,10,8,5,1.0,0,0,9,0,0,1.0,asocial
01JW02AFEYAGBGPNN4MPBZP5PG,10,9,5,1.0,0,0,5,0,0,1.0,asocial
01JW02AFEYAGBGPNN4MPBZP5PG,11,0,9,1.0,1,0,3,1,5,1.0,asocial
01JW02AFEYAGBGPNN4MPBZP5PG,11,1,9,1.0,2,0,17,1,5,1.0,asocial
01JW02AFEYAGBGPNN4MPBZP5PG,11,2,9,1.0,1,0,12,0,5,1.0,asocial
01JW02AFEYAGBGPNN4MPBZP5PG,11,3,9,1.0,1,1,10,2,5,1.0,asocial
01JW02AFEYAGBGPNN4MPBZP5PG,11,4,9,1.0,0,0,2,1,5,1.0,asocial
01JW02AFEYAGBGPNN4MPBZP5PG,11,5,9,1.0,2,0,3,1,5,1.0,asocial
01JW02AFEYAGBGPNN4MPBZP5PG,11,6,9,1.0,1,0,12,0,5,1.0,asocial
01JW02AFEYAGBGPNN4MPBZP5PG,11,7,9,1.0,1,0,19,1,5,1.0,asocial
01JW02AFEYAGBGPNN4MPBZP5PG,11,8,9,1.0,0,0,10,0,5,1.0,asocial
01JW02AFEYAGBGPNN4MPBZP5PG,11,9,9,1.0,0,0,5,0,5,1.0,asocial
01JW02AFEYAGBGPNN4MPBZP5PG,12,0,0,1.0,1,0,3,1,9,1.0,asocial
01JW02AFEYAGBGPNN4MPBZP5PG,12,1,0,1.0,2,0,18,1,9,1.0,asocial
01JW02AFEYAGBGPNN4MPBZP5PG,12,2,0,1.0,1,0,14,0,9,1.0,asocial
01JW02AFEYAGBGPNN4MPBZP5PG,12,3,0,1.0,1,1,11,2,9,1.0,asocial
01JW02AFEYAGBGPNN4MPBZP5PG,12,4,0,1.0,0,0,2,1,9,1.0,asocial
01JW02AFEYAGBGPNN4MPBZP5PG,12,5,0,1.0,2,0,3,1,9,1.0,asocial
01JW02AFEYAGBGPNN4MPBZP5PG,12,6,0,1.0,1,0,13,0,9,1.0,asocial
01JW02AFEYAGBGPNN4MPBZP5PG,12,7,0,1.0,1,0,20,1,9,1.0,asocial
01JW02AFEYAGBGPNN4MPBZP5PG,12,8,0,1.0,0,0,11,1,9,1.0,asocial
01JW02AFEYAGBGPNN4MPBZP5PG,12,9,0,1.0,1,0,6,1,9,1.0,asocial
01JW02AFEYAGBGPNN4MPBZP5PG,13,0,0,1.0,2,0,4,1,0,1.0,asocial
01JW02AFEYAGBGPNN4MPBZP5PG,13,1,0,1.0,2,0,19,1,0,1.0,asocial
01JW02AFEYAGBGPNN4MPBZP5PG,13,2,0,1.0,1,0,16,0,0,1.0,asocial
