participant_id,round,arm,choice,reward,own_success,own_failure,group_success,group_failure,prev_choice,prev_reward,condition
01JVTR9QD0KS2SPX7QDY0N8AX9,1,0,7,1.0,0,0,0,0,-1,,asocial
01JVTR9QD0KS2SPX7QDY0N8AX9,1,1,7,1.0,0,0,0,0,-1,,asocial
01JVTR9QD0KS2SPX7QDY0N8AX9,1,2,7,1.0,0,0,0,0,-1,,asocial
01JVTR9QD0KS2SPX7QDY0N8AX9,1,3,7,1.0,0,0,0,0,-1,,asocial
01JVTR9QD0KS2SPX7QDY0N8AX9,1,4,7,1.0,0,0,0,0,-1,,asocial
01JVTR9QD0KS2SPX7QDY0N8AX9,1,5,7,1.0,0,0,0,0,-1,,asocial
01JVTR9QD0KS2SPX7QDY0N8AX9,1,6,7,1.0,0,0,0,0,-1,,asocial
01JVTR9QD0KS2SPX7QDY0N8AX9,1,7,7,1.0,0,0,0,0,-1,,asocial
01JVTR9QD0KS2SPX7QDY0N8AX9,1,8,7,1.0,0,0,0,0,-1,,asocial
01JVTR9QD0KS2SPX7QDY0N8AX9,1,9,7,1.0,0,0,0,0,-1,,asocial
01JVTR9QD0KS2SPX7QDY0N8AX9,2,0,5,1.0,0,0,1,0,7,1.0,asocial
01JVTR9QD0KS2SPX7QDY0N8AX9,2,1,5,1.0,0,0,1,0,7,1.0,asocial
01JVTR9QD0KS2SPX7QDY0N8AX9,2,2,5,1.0,0,0,1,0,7,1.0,asocial
01JVTR9QD0KS2SPX7QDY0N8AX9,2,3,5,1.0,0,0,1,0,7,1.0,asocial
01JVTR9QD0KS2SPX7QDY0N8AX9,2,4,5,1.0,0,0,1,0,7,1.0,asocial
01JVTR9QD0KS2SPX7QDY0N8AX9,2,5,5,1.0,0,0,1,0,7,1.0,asocial
01JVTR9QD0KS2SPX7QDY0N8AX9,2,6,5,1.0,0,0,1,0,7,1.0,asocial
01JVTR9QD0KS2SPX7QDY0N8AX9,2,7,5,1.0,1,0,1,0,7,1.0,asocial
01JVTR9QD0KS2SPX7QDY0N8AX9,2,8,5,1.0,0,0,1,0,7,1.0,asocial
01JVTR9QD0KS2SPX7QDY0N8AX9,2,9,5,1.0,0,0,1,0,7,1.0,asocial
01JVTR9QD0KS2SPX7QDY0N8AX9,3,0,5,1.0,0,0,2,0,5,1.0,asocial
01JVTR9QD0KS2SPX7QDY0N8AX9,3,1,5,1.0,0,0,1,0,5,1.0,asocial
01JVTR9QD0KS2SPX7QDY0N8AX9,3,2,5,1.0,0,0,2,0,5,1.0,asocial
01JVTR9QD0KS2SPX7QDY0N8AX9,3,3,5,1.0,0,0,2,0,5,1.0,asocial
01JVTR9QD0KS2SPX7QDY0N8AX9,3,4,5,1.0,0,0,2,0,5,1.0,asocial
01JVTR9QD0KS2SPX7QDY0N8AX9,3,5,5,1.0,1,0,4,0,5,1.0,asocial
01JVTR9QD0KS2SPX7QDY0N8AX9,3,6,5,1.0,0,0,2,0,5,1.0,asocial
01JVTR9QD0KS2SPX7QDY0N8AX9,3,7,5,1.0,1,0,1,0,5,1.0,asocial
01JVTR9QD0KS2SPX7QDY0N8AX9,3,8,5,1.0,0,0,2,0,5,1.0,asocial
01JVTR9QD0KS2SPX7QDY0N8AX9,3,9,5,1.0,0,0,2,0,5,1.0,asocial
01JVTR9QD0KS2SPX7QDY0N8AX9,4,0,5,1.0,0,0,3,0,5,1.0,asocial
01JVTR9QD0KS2SPX7QDY0N8AX9,4,1,5,1.0,0,0,1,0,5,1.0,asocial
01JVTR9QD0KS2SPX7QDY0N8AX9,4,2,5,1.0,0,0,4,0,5,1.0,asocial
01JVTR9QD0KS2SPX7QDY0N8AX9,4,3,5,1.0,0,0,3,0,5,1.0,asocial
01JVTR9QD0KS2SPX7QDY0N8AX9,4,4,5,1.0,0,0,3,0,5,1.0,asocial
01JVTR9QD0KS2SPX7QDY0N8AX9,4,5,5,1.0,2,0,6,0,5,1.0,asocial
01JVTR9QD0KS2SPX7QDY0N8AX9,4,6,5,1.0,0,0,3,1,5,1.0,asocial
01JVTR9QD0KS2SPX7QDY0N8AX9,4,7,5,1.0,1,0,1,0,5,1.0,asocial
01JVTR9QD0KS2SPX7QDY0N8AX9,4,8,5,1.0,0,0,2,0,5,1.0,asocial
01JVTR9QD0KS2SPX7QDY0N8AX9,4,9,5,1.0,0,0,3,0,5,1.0,asocial
01JVTR9QD0KS2SPX7QDY0N8AX9,5,0,7,1.0,0,0,4,0,5,1.0,asocial
01JVTR9QD0KS2SPX7QDY0N8AX9,5,1,7,1.0,0,0,1,0,5,1.0,asocial
01JVTR9QD0KS2SPX7QDY0N8AX9,5,2,7,1.0,0,0,5,0,5,1.0,asocial
01JVTR9QD0KS2SPX7QDY0N8AX9,5,3,7,1.0,0,0,5,0,5,1.0,asocial
01JVTR9QD0KS2SPX7QDY0N8AX9,5,4,7,1.0,0,0,4,0,5,1.0,asocial
01JVTR9QD0KS2SPX7QDY0N8AX9,5,5,7,1.0,3,0,9,0,5,1.0,asocial
01JVTR9QD0KS2SPX7QDY0N8AX9,5,6,7,1.0,0,0,4,1,5,1.0,asocial
01JVTR9QD0KS2SPX7QDY0N8AX9,5,7,7,1.0,1,0,1,0,5,1.0,asocial
01JVTR9QD0KS2SPX7QDY0N8AX9,5,8,7,1.0,0,0,2,0,5,1.0,asocial
01JVTR9QD0KS2SPX7QDY0N8AX9,5,9,7,1.0,0,0,4,0,5,1.0,asocial
01JVTR9QD0KS2SPX7QDY0N8AX9,6,0,9,1.0,0,0,6,0,7,1.0,asocial
01JVTR9QD0KS2SPX7QDY0N8AX9,6,1,9,1.0,0,0,1,0,7,1.0,asocial
01JVTR9QD0KS2SPX7QDY0N8AX9,6,2,9,1.0,0,0,6,0,7,1.0,asocial
01JVTR9QD0KS2SPX7QDY0N8AX9,6,3,9,1.0,0,0,6,0,7,1.0,asocial
01JVTR9QD0KS2SPX7QDY0N8AX9,6,4,9,1.0,0,0,5,0,7,1.0,asocial
01JVTR9QD0KS2SPX7QDY0N8AX9,6,5,9,1.0,3,0,11,0,7,1.0,asocial
01JVTR9QD0KS2SPX7QDY0N8AX9,6,6,9,1.0,0,0,5,1,7,1.0,asocial
01JVTR9QD0KS2SPX7QDY0N8AX9,6,7,9,1.0,2,0,2,0,7,1.0,asocial
01JVTR9QD0KS2SPX7QDY0N8AX9,6,8,9,1.0,0,0,2,0,7,1.0,asocial
01JVTR9QD0KS2SPX7QDY0N8AX9,6,9,9,1.0,0,0,5,0,7,1.0,asocial
01JVTR9QD0KS2SPX7QDY0N8AX9,7,0,5,1.0,0,0,7,0,9,1.0,asocial
01JVTR9QD0KS2SPX7QDY0N8AX9,7,1,5,1.0,0,0,1,0,9,1.0,asocial
01JVTR9QD0KS2SPX7QDY0N8AX9,7,2,5,1.0,0,0,7,0,9,1.0,asocial
01JVTR9QD0KS2SPX7QDY0N8AX9,7,3,5,1.0,0,0,7,0,9,1.0,asocial
01JVTR9QD0KS2SPX7QDY0N8AX9,7,4,5,1.0,0,0,6,0,9,1.0,asocial
01JVTR9QD0KS2SPX7QDY0N8AX9,7,5,5,1.0,3,0,12,1,9,1.0,asocial
01JVTR9QD0KS2SPX7QDY0N8AX9,7,6,5,1.0,0,0,6,1,9,1.0,asocial
01JVTR9QD0KS2SPX7QDY0N8AX9,7,7,5,1.0,2,0,2,0,9,1.0,asocial
01JVTR9QD0KS2SPX7QDY0N8AX9,7,8,5,1.0,0,0,3,0,9,1.0,asocial
01JVTR9QD0KS2SPX7QDY0N8AX9,7,9,5,1.0,1,0,7,0,9,1.0,asocial
01JVTR9QD0KS2SPX7QDY0N8AX9,8,0,5,1.0,0,0,8,0,5,1.0,asocial
01JVTR9QD0KS2SPX7QDY0N8AX9,8,1,5,1.0,0,0,1,0,5,1.0,asocial
01JVTR9QD0KS2SPX7QDY0N8AX9,8,2,5,1.0,0,0,8,0,5,1.0,asocial
01JVTR9QD0KS2SPX7QDY0N8AX9,8,3,5,1.0,0,0,8,0,5,1.0,asocial
01JVTR9QD0KS2SPX7QDY0N8AX9,8,4,5,1.0,0,0,7,0,5,1.0,asocial
01JVTR9QD0KS2SPX7QDY0N8AX9,8,5,5,1.0,4,0,15,1,5,1.0,asocial
01JVTR9QD0KS2SPX7QDY0N8AX9,8,6,5,1.0,0,0,7,2,5,1.0,asocial
01JVTR9QD0KS2SPX7QDY0N8AX9,8,7,5,1.0,2,0,2,0,5,1.0,asocial
01JVTR9QD0KS2SPX7QDY0N8AX9,8,8,5,1.0,0,0,3,0,5,1.0,asocial
01JVTR9QD0KS2SPX7QDY0N8AX9,8,9,5,1.0,1,0,8,0,5,1.0,asocial
01JVTR9QD0KS2SPX7QDY0N8AX9,9,0,7,1.0,0,0,8,1,5,1.0,asocial
01JVTR9QD0KS2SPX7QDY0N8AX9,9,1,7,1.0,0,0,1,0,5,1.0,asocial
01JVTR9QD0KS2SPX7QDY0N8AX9,9,2,7,1.0,0,0,10,0,5,1.0,asocial
01JVTR9QD0KS2SPX7QDY0N8AX9,9,3,7,1.0,0,0,9,0,5,1.0,asocial
01JVTR9QD0KS2SPX7QDY0N8AX9,9,4,7,1.0,0,0,8,0,5,1.0,asocial
01JVTR9QD0KS2SPX7QDY0N8AX9,9,5,7,1.0,5,0,18,1,5,1.0,asocial
01JVTR9QD0KS2SPX7QDY0N8AX9,9,6,7,1.0,0,0,8,2,5,1.0,asocial
01JVTR9QD0KS2SPX7QDY0N8AX9,9,7,7,1.0,2,0,2,0,5,1.0,asocial
01JVTR9QD0KS2SPX7QDY0N8AX9,9,8,7,1.0,0,0,3,0,5,1.0,asocial
01JVTR9QD0KS2SPX7QDY0N8AX9,9,9,7,1.0,1,0,9,0,5,1.0,asocial
01JVTR9QD0KS2SPX7QDY0N8AX9,10,0,5,1.0,0,0,9,1,7,1.0,asocial
01JVTR9QD0KS2SPX7QDY0N8AX9,10,1,5,1.0,0,0,1,0,7,1.0,asocial
01JVTR9QD0KS2SPX7QDY0N8AX9,10,2,5,1.0,0,0,11,0,7,1.0,asocial
01JVTR9QD0KS2SPX7QDY0N8AX9,10,3,5,1.0,0,0,10,0,7,1.0,asocial
01JVTR9QD0KS2SPX7QDY0N8AX9,10,4,5,1.0,0,0,9,0,7,1.0,asocial
01JVTR9QD0KS2SPX7QDY0N8AX9,10,5,5,1.0,5,0,21,1,7,1.0,asocial
01JVTR9QD0KS2SPX7QDY0N8AX9,10,6,5,1.0,0,0,9,3,7,1.0,asocial
01JVTR9QD0KS2SPX7QDY0N8AX9,10,7,5,1.0,3,0,3,0,7,1.0,asocial
01JVTR9QD0KS2SPX7QDY0N8AX9,10,8,5,1.0,0,0,3,0,7,1.0,asocial
01JVTR9QD0KS2SPX7QDY0N8AX9,10,9,5,1.0,1,0,9,0,7,1.0,asocial
01JVTR9QD0KS2SPX7QDY0N8AX9,11,0,9,1.0,0,0,10,1,5,1.0,asocial
01JVTR9QD0KS2SPX7QDY0N8AX9,11,1,9,1.0,0,0,1,0,5,1.0,asocial
01JVTR9QD0KS2SPX7QDY0N8AX9,11,2,9,1.0,0,0,12,0,5,1.0,asocial
01JVTR9QD0KS2SPX7QDY0N8AX9,11,3,9,1.0,0,0,11,0,5,1.0,asocial
01JVTR9QD0KS2SPX7QDY0N8AX9,11,4,9,1.0,0,0,10,0,5,1.0,asocial
01JVTR9QD0KS2SPX7QDY0N8AX9,11,5,9,1.0,6,0,23,1,5,1.0,asocial
01JVTR9QD0KS2SPX7QDY0N8AX9,11,6,9,1.0,0,0,11,3,5,1.0,asocial
01JVTR9QD0KS2SPX7QDY0N8AX9,11,7,9,1.0,3,0,4,0,5,1.0,asocial
01JVTR9QD0KS2SPX7QDY0N8AX9,11,8,9,1.0,0,0,4,0,5,1.0,asocial
01JVTR9QD0KS2SPX7QDY0N8AX9,11,9,9,1.0,1,0,9,0,5,1.0,asocial
01JVTR9QD0KS2SPX7QDY0N8AX9,12,0,5,1.0,0,0,11,1,9,1.0,asocial
01JVTR9QD0KS2SPX7QDY0N8AX9,12,1,5,1.0,0,0,1,0,9,1.0,asocial
01JVTR9QD0KS2SPX7QDY0N8AX9,12,2,5,1.0,0,0,13,0,9,1.0,asocial
01JVTR9QD0KS2SPX7QDY0N8AX9,12,3,5,1.0,0,0,13,0,9,1.0,asocial
01JVTR9QD0KS2SPX7QDY0N8AX9,12,4,5,1.0,0,0,10,1,9,1.0,asocial
01JVTR9QD0KS2SPX7QDY0N8AX9,12,5,5,1.0,6,0,25,1,9,1.0,asocial
01JVTR9QD0KS2SPX7QDY0N8AX9,12,6,5,1.0,0,0,12,3,9,1.0,asocial
01JVTR9QD0KS2SPX7QDY0N8AX9,12,7,5,1.0,3,0,5,0,9,1.0,asocial
01JVTR9QD0KS2SPX7QDY0N8AX9,12,8,5,1.0,0,0,4,0,9,1.0,asocial
01JVTR9QD0KS2SPX7QDY0N8AX9,12,9,5,1.0,2,0,10,0,9,1.0,asocial
01JVTR9QD0KS2SPX7QDY0N8AX9,13,0,5,1.0,0,0,12,1,5,1.0,asocial
01JVTR9QD0KS2SPX7QDY0N8AX9,13,1,5,1.0,0,0,1,0,5,1.0,asocial
01JVTR9QD0KS2SPX7QDY0N8AX9,13,2,5,1.0,0,0,14,0,5,1.0,asocial
01JVTR9QD0KS2SPX7QDY0N8AX9,13,3,5,1.0,0,0,14,0,5,1.0,asocial
01JVTR9QD0KS2SPX7QDY0N8AX9,13,4,5,1.0,0,0,10,1,5,1.0,asocial
01JVTR9QD0KS2SPX7QDY0N8AX9,13,5,5,1.0,7,0,26,2,5,1.0,asocial
01JVTR9QD0KS2SPX7QDY0N8AX9,13,6,5,1.0,0,0,13,3,5,1.0,asocial
01JVTR9QD0KS2SPX7QDY0N8AX9,13,7,5,1.0,3,0,6,0,5,1.0,asocial
01JVTR9QD0KS2SPX7QDY0N8AX9,13,8,5,1.0,0,0,5,0,5,1.0,asocial
01JVTR9QD0KS2SPX7QDY0N8AX9,13,9,5,1.0,2,0,11,0,5,1.0,asocial
01JVTR9QD0KS2SPX7QDY0N8AX9,14,0,5,1.0,0,0,13,1,5,1.0,asocial
01JVTR9QD0KS2SPX7QDY0N8AX9,14,1,5,1.0,0,0,2,0,5,1.0,asocial
01JVTR9QD0KS2SPX7QDY0N8AX9,14,2,5,1.0,0,0,14,0,5,1.0,asocial
01JVTR9QD0KS2SPX7QDY0N8AX9,14,3,5,1.0,0,0,15,0,5,1.0,asocial
01JVTR9QD0KS2SPX7QDY0N8AX9,14,4,5,1.0,0,0,10,1,5,1.0,asocial
01JVTR9QD0KS2SPX7QDY0N8AX9,14,5,5,1.0,8,0,27,3,5,1.0,asocial
01JVTR9QD0KS2SPX7QDY0N8AX9,14,6,5,1.0,0,0,13,3,5,1.0,asocial
01JVTR9QD0KS2SPX7QDY0N8AX9,14,7,5,1.0,3,0,7,0,5,1.0,asocial
01JVTR9QD0KS2SPX7QDY0N8AX9,14,8,5,1.0,0,0,6,0,5,1.0,asocial
01JVTR9QD0KS2SPX7QDY0N8AX9,14,9,5,1.0,2,0,13,0,5,1.0,asocial
01JVTR9QD0KS2SPX7QDY0N8AX9,15,0,7,1.0,0,0,14,1,5,1.0,asocial
01JVTR9QD0KS2SPX7QDY0N8AX9,15,1,7,1.0,0,0,2,0,5,1.0,asocial
01JVTR9QD0KS2SPX7QDY0N8AX9,15,2,7,1.0,0,0,14,0,5,1.0,asocial
01JVTR9QD0KS2SPX7QDY0N8AX9,15,3,7,1.0,0,0,16,0,5,1.0,asocial
01JVTR9QD0KS2SPX7QDY0N8AX9,15,4,7,1.0,0,0,11,1,5,1.0,asocial
01JVTR9QD0KS2SPX7QDY0N8AX9,15,5,7,1.0,9,0,29,4,5,1.0,asocial
01JVTR9QD0KS2SPX7QDY0N8AX9,15,6,7,1.0,0,0,14,3,5,1.0,asocial
01JVTR9QD0KS2SPX7QDY0N8AX9,15,7,7,1.0,3,0,8,0,5,1.0,asocial
01JVTR9QD0KS2SPX7QDY0N8AX9,15,8,7,1.0,0,0,7,0,5,1.0,asocial
01JVTR9QD0KS2SPX7QDY0N8AX9,15,9,7,1.0,2,0,14,0,5,1.0,asocial
01JVTR9QD0KS2SPX7QDY0N8AX9,16,0,5,1.0,0,0,15,1,7,1.0,asocial
01JVTR9QD0KS2SPX7QDY0N8AX9,16,1,5,1.0,0,0,3,0,7,1.0,asocial
01JVTR9QD0KS2SPX7QDY0N8AX9,16,2,5,1.0,0,0,14,0,7,1.0,asocial
01JVTR9QD0KS2SPX7QDY0N8AX9,16,3,5,1.0,0,0,17,0,7,1.0,asocial
01JVTR9QD0KS2SPX7QDY0N8AX9,16,4,5,1.0,0,0,11,1,7,1.0,asocial
01JVTR9QD0KS2SPX7QDY0N8AX9,16,5,5,1.0,9,0,30,4,7,1.0,asocial
01JVTR9QD0KS2SPX7QDY0N8AX9,16,6,5,1.0,0,0,14,4,7,1.0,asocial
01JVTR9QD0KS2SPX7QDY0N8AX9,16,7,5,1.0,4,0,11,1,7,1.0,asocial
01JVTR9QD0KS2SPX7QDY0N8AX9,16,8,5,1.0,0,0,7,0,7,1.0,asocial
01JVTR9QD0KS2SPX7QDY0N8AX9,16,9,5,1.0,2,0,15,0,7,1.0,asocial
01JVTR9QD0KS2SPX7QDY0N8AX9,17,0,5,1.0,0,0,16,1,5,1.0,asocial
01JVTR9QD0KS2SPX7QDY0N8AX9,17,1,5,1.0,0,0,4,0,5,1.0,asocial
01JVTR9QD0KS2SPX7QDY0N8AX9,17,2,5,1.0,0,0,15,0,5,1.0,asocial
01JVTR9QD0KS2SPX7QDY0N8AX9,17,3,5,1.0,0,0,18,0,5,1.0,asocial
01JVTR9QD0KS2SPX7QDY0N8AX9,17,4,5,1.0,0,0,11,1,5,1.0,asocial
01JVTR9QD0KS2SPX7QDY0N8AX9,17,5,5,1.0,10,0,32,4,5,1.0,asocial
01JVTR9QD0KS2SPX7QDY0N8AX9,17,6,5,1.0,0,0,15,4,5,1.0,asocial
01JVTR9QD0KS2SPX7QDY0N8AX9,17,7,5,1.0,4,0,11,3,5,1.0,asocial
01JVTR9QD0KS2SPX7QDY0N8AX9,17,8,5,1.0,0,0,7,0,5,1.0,asocial
01JVTR9QD0KS2SPX7QDY0N8AX9,17,9,5,1.0,2,0,16,0,5,1.0,asocial
01JVTR9QD0KS2SPX7QDY0N8AX9,18,0,5,1.0,0,0,17,1,5,1.0,asocial
01JVTR9QD0KS2SPX7QDY0N8AX9,18,1,5,1.0,0,0,5,0,5,1.0,asocial
01JVTR9QD0KS2SPX7QDY0N8AX9,18,2,5,1.0,0,0,17,0,5,1.0,asocial
01JVTR9QD0KS2SPX7QDY0N8AX9,18,3,5,1.0,0,0,19,0,5,1.0,asocial
01JVTR9QD0KS2SPX7QDY0N8AX9,18,4,5,1.0,0,0,11,1,5,1.0,asocial
01JVTR9QD0KS2SPX7QDY0N8AX9,18,5,5,1.0,11,0,34,4,5,1.0,asocial
01JVTR9QD0KS2SPX7QDY0N8AX9,18,6,5,1.0,0,0,16,4,5,1.0,asocial
01JVTR9QD0KS2SPX7QDY0N8AX9,18,7,5,1.0,4,0,11,3,5,1.0,asocial
01JVTR9QD0KS2SPX7QDY0N8AX9,18,8,5,1.0,0,0,8,0,5,1.0,asocial
01JVTR9QD0KS2SPX7QDY0N8AX9,18,9,5,1.0,2,0,17,0,5,1.0,asocial
01JVTR9QD0KS2SPX7QDY0N8AX9,19,0,5,0.0,0,0,19,1,5,1.0,asocial
01JVTR9QD0KS2SPX7QDY0N8AX9,19,1,5,0.0,0,0,6,0,5,1.0,asocial
01JVTR9QD0KS2SPX7QDY0N8AX9,19,2,5,0.0,0,0,17,1,5,1.0,asocial
01JVTR9QD0KS2SPX7QDY0N8AX9,19,3,5,0.0,0,0,19,1,5,1.0,asocial
01JVTR9QD0KS2SPX7QDY0N8AX9,19,4,5,0.0,0,0,11,1,5,1.0,asocial
01JVTR9QD0KS2SPX7QDY0N8AX9,19,5,5,0.0,12,0,36,4,5,1.0,asocial
01JVTR9QD0KS2SPX7QDY0N8AX9,19,6,5,0.0,0,0,17,4,5,1.0,asocial
01JVTR9QD0KS2SPX7QDY0N8AX9,19,7,5,0.0,4,0,11,3,5,1.0,asocial
01JVTR9QD0KS2SPX7QDY0N8AX9,19,8,5,0.0,0,0,9,0,5,1.0,asocial
01JVTR9QD0KS2SPX7QDY0N8AX9,19,9,5,0.0,2,0,18,0,5,1.0,asocial
01JVTR9QD0KS2SPX7QDY0N8AX9,20,0,5,1.0,0,0,20,1,5,0.0,asocial
01JVTR9QD0KS2SPX7QDY0N8AX9,20,1,5,1.0,0,0,6,0,5,0.0,asocial
01JVTR9QD0KS2SPX7QDY0N8AX9,20,2,5,1.0,0,0,17,1,5,0.0,asocial
01JVTR9QD0KS2SPX7QDY0N8AX9,20,3,5,1.0,0,0,21,1,5,0.0,asocial
01JVTR9QD0KS2SPX7QDY0N8AX9,20,4,5,1.0,0,0,11,1,5,0.0,asocial
01JVTR9QD0KS2SPX7QDY0N8AX9,20,5,5,1.0,12,1,37,5,5,0.0,asocial
01JVTR9QD0KS2SPX7QDY0N8AX9,20,6,5,1.0,0,0,18,4,5,0.0,asocial
01JVTR9QD0KS2SPX7QDY0N8AX9,20,7,5,1.0,4,0,11,3,5,0.0,asocial
01JVTR9QD0KS2SPX7QDY0N8AX9,20,8,5,1.0,0,0,11,0,5,0.0,asocial
01JVTR9QD0KS2SPX7QDY0N8AX9,20,9,5,1.0,2,0,18,1,5,0.0,asocial
01JVTR9QD0KS2SPX7QDY0N8AX9,21,0,5,1.0,0,0,21,1,5,1.0,asocial
01JVTR9QD0KS2SPX7QDY0N8AX9,21,1,5,1.0,0,0,7,0,5,1.0,asocial
01JVTR9QD0KS2SPX7QDY0N8AX9,21,2,5,1.0,0,0,17,1,5,1.0,asocial
01JVTR9QD0KS2SPX7QDY0N8AX9,21,3,5,1.0,0,0,23,1,5,1.0,asocial
01JVTR9QD0KS2SPX7QDY0N8AX9,21,4,5,1.0,0,0,12,1,5,1.0,asocial
01JVTR9QD0KS2SPX7QDY0N8AX9,21,5,5,1.0,13,1,39,5,5,1.0,asocial
01JVTR9QD0KS2SPX7QDY0N8AX9,21,6,5,1.0,0,0,19,4,5,1.0,asocial
01JVTR9QD0KS2SPX7QDY0N8AX9,21,7,5,1.0,4,0,11,3,5,1.0,asocial
01JVTR9QD0KS2SPX7QDY0N8AX9,21,8,5,1.0,0,0,13,0,5,1.0,asocial
01JVTR9QD0KS2SPX7QDY0N8AX9,21,9,5,1.0,2,0,18,1,5,1.0,asocial
01JVTR9QD0KS2SPX7QDY0N8AX9,22,0,5,1.0,0,0,22,1,5,1.0,asocial
01JVTR9QD0KS2SPX7QDY0N8AX9,22,1,5,1.0,0,0,8,0,5,1.0,asocial
01JVTR9QD0KS2SPX7QDY0N8AX9,22,2,5,1.0,0,0,17,1,5,1.0,asocial
01JVTR9QD0KS2SPX7QDY0N8AX9,22,3,5,1.0,0,0,25,1,5,1.0,asocial
01JVTR9QD0KS2SPX7QDY0N8AX9,22,4,5,1.0,0,0,12,1,5,1.0,asocial
01JVTR9QD0KS2SPX7QDY0N8AX9,22,5,5,1.0,14,1,40,7,5,1.0,asocial
01JVTR9QD0KS2SPX7QDY0N8AX9,22,6,5,1.0,0,0,20,4,5,1.0,asocial
01JVTR9QD0KS2SPX7QDY0N8AX9,22,7,5,1.0,4,0,12,3,5,1.0,asocial
01JVTR9QD0KS2SPX7QDY0N8AX9,22,8,5,1.0,0,0,14,0,5,1.0,asocial
01JVTR9QD0KS2SPX7QDY0N8AX9,22,9,5,1.0,2,0,18,1,5,1.0,asocial
01JVTR9QD0KS2SPX7QDY0N8AX9,23,0,5,0.0,0,0,23,1,5,1.0,asocial
01JVTR9QD0KS2SPX7QDY0N8AX9,23,1,5,0.0,0,0,9,0,5,1.0,asocial
01JVTR9QD0KS2SPX7QDY0N8AX9,23,2,5,0.0,0,0,17,2,5,1.0,asocial
01JVTR9QD0KS2SPX7QDY0N8AX9,23,3,5,0.0,0,0,27,1,5,1.0,asocial
01JVTR9QD0KS2SPX7QDY0N8AX9,23,4,5,0.0,0,0,12,1,5,1.0,asocial
01JVTR9QD0KS2SPX7QDY0N8AX9,23,5,5,0.0,15,1,42,7,5,1.0,asocial
01JVTR9QD0KS2SPX7QDY0N8AX9,23,6,5,0.0,0,0,21,4,5,1.0,asocial
01JVTR9QD0KS2SPX7QDY0N8AX9,23,7,5,0.0,4,0,12,3,5,1.0,asocial
01JVTR9QD0KS2SPX7QDY0N8AX9,23,8,5,0.0,0,0,15,0,5,1.0,asocial
01JVTR9QD0KS2SPX7QDY0N8AX9,23,9,5,0.0,2,0,19,1,5,1.0,asocial
01JVTR9QD0KS2SPX7QDY0N8AX9,24,0,5,1.0,0,0,24,1,5,0.0,asocial
01JVTR9QD0KS2SPX7QDY0N8AX9,24,1,5,1.0,0,0,9,1,5,0.0,asocial
01JVTR9QD0KS2SPX7QDY0N8AX9,24,2,5,1.0,0,0,18,2,5,0.0,asocial
01JVTR9QD0KS2SPX7QDY0N8AX9,24,3,5,1.0,0,0,29,1,5,0.0,asocial
01JVTR9QD0KS2SPX7QDY0N8AX9,24,4,5,1.0,0,0,13,1,5,0.0,asocial
01JVTR9QD0KS2SPX7QDY0N8AX9,24,5,5,1.0,15,2,43,8,5,0.0,asocial
01JVTR9QD0KS2SPX7QDY0N8AX9,24,6,5,1.0,0,0,21,5,5,0.0,asocial
01JVTR9QD0KS2SPX7QDY0N8AX9,24,7,5,1.0,4,0,12,3,5,0.0,asocial
01JVTR9QD0KS2SPX7QDY0N8AX9,24,8,5,1.0,0,0,16,0,5,0.0,asocial
01JVTR9QD0KS2SPX7QDY0N8AX9,24,9,5,1.0,2,0,19,1,5,0.0,asocial
01JVTR9QD0KS2SPX7QDY0N8AX9,25,0,7,0.0,0,0,28,1,5,1.0,asocial
01JVTR9QD0KS2SPX7QDY0N8AX9,25,1,7,0.0,0,0,9,1,5,1.0,asocial
01JVTR9QD0KS2SPX7QDY0N8AX9,25,2,7,0.0,0,0,18,2,5,1.0,asocial
01JVTR9QD0KS2SPX7QDY0N8AX9,25,3,7,0.0,0,0,31,1,5,1.0,asocial
01JVTR9QD0KS2SPX7QDY0N8AX9,25,4,7,0.0,0,0,13,1,5,1.0,asocial
01JVTR9QD0KS2SPX7QDY0N8AX9,25,5,7,0.0,16,2,45,8,5,1.0,asocial
01JVTR9QD0KS2SPX7QDY0N8AX9,25,6,7,0.0,0,0,22,5,5,1.0,asocial
01JVTR9QD0KS2SPX7QDY0N8AX9,25,7,7,0.0,4,0,12,3,5,1.0,asocial
01JVTR9QD0KS2SPX7QDY0N8AX9,25,8,7,0.0,0,0,16,1,5,1.0,asocial
01JVTR9QD0KS2SPX7QDY0N8AX9,25,9,7,0.0,2,0,19,1,5,1.0,asocial
01JVTR9QD0KS2SPX7QDY0N8AX9,26,0,5,1.0,0,0,29,1,7,0.0,asocial
01JVTR9QD0KS2SPX7QDY0N8AX9,26,1,5,1.0,0,0,11,1,7,0.0,asocial
01JVTR9QD0KS2SPX7QDY0N8AX9,26,2,5,1.0,0,0,19,2,7,0.0,asocial
01JVTR9QD0KS2SPX7QDY0N8AX9,26,3,5,1.0,0,0,33,1,7,0.0,asocial
01JVTR9QD0KS2SPX7QDY0N8AX9,26,4,5,1.0,0,0,14,1,7,0.0,asocial
01JVTR9QD0KS2SPX7QDY0N8AX9,26,5,5,1.0,16,2,45,8,7,0.0,asocial
01JVTR9QD0KS2SPX7QDY0N8AX9,26,6,5,1.0,0,0,23,5,7,0.0,asocial
01JVTR9QD0KS2SPX7QDY0N8AX9,26,7,5,1.0,4,1,12,4,7,0.0,asocial
01JVTR9QD0KS2SPX7QDY0N8AX9,26,8,5,1.0,0,0,16,1,7,0.0,asocial
01JVTR9QD0KS2SPX7QDY0N8AX9,26,9,5,1.0,2,0,20,1,7,0.0,asocial
01JVTR9QD0KS2SPX7QDY0N8AX9,27,0,5,1.0,0,0,31,1,5,1.0,asocial
01JVTR9QD0KS2SPX7QDY0N8AX9,27,1,5,1.0,0,0,11,1,5,1.0,asocial
01JVTR9QD0KS2SPX7QDY0N8AX9,27,2,5,1.0,0,0,19,3,5,1.0,asocial
01JVTR9QD0KS2SPX7QDY0N8AX9,27,3,5,1.0,0,0,35,2,5,1.0,asocial
01JVTR9QD0KS2SPX7QDY0N8AX9,27,4,5,1.0,0,0,14,1,5,1.0,asocial
01JVTR9QD0KS2SPX7QDY0N8AX9,27,5,5,1.0,17,2,46,8,5,1.0,asocial
01JVTR9QD0KS2SPX7QDY0N8AX9,27,6,5,1.0,0,0,25,5,5,1.0,asocial
01JVTR9QD0KS2SPX7QDY0N8AX9,27,7,5,1.0,4,1,12,4,5,1.0,asocial
01JVTR9QD0KS2SPX7QDY0N8AX9,27,8,5,1.0,0,0,17,1,5,1.0,asocial
01JVTR9QD0KS2SPX7QDY0N8AX9,27,9,5,1.0,2,0,20,1,5,1.0,asocial
01JVTR9QD0KS2SPX7QDY0N8AX9,28,0,7,1.0,0,0,32,2,5,1.0,asocial
01JVTR9QD0KS2SPX7QDY0N8AX9,28,1,7,1.0,0,0,11,1,5,1.0,asocial
01JVTR9QD0KS2SPX7QDY0N8AX9,28,2,7,1.0,0,0,20,3,5,1.0,asocial
01JVTR9QD0KS2SPX7QDY0N8AX9,28,3,7,1.0,0,0,37,2,5,1.0,asocial
01JVTR9QD0KS2SPX7QDY0N8AX9,28,4,7,1.0,0,0,15,1,5,1.0,asocial
01JVTR9QD0KS2SPX7QDY0N8AX9,28,5,7,1.0,18,2,47,8,5,1.0,asocial
01JVTR9QD0KS2SPX7QDY0N8AX9,28,6,7,1.0,0,0,27,5,5,1.0,asocial
01JVTR9QD0KS2SPX7QDY0N8AX9,28,7,7,1.0,4,1,12,4,5,1.0,asocial
01JVTR9QD0KS2SPX7QDY0N8AX9,28,8,7,1.0,0,0,17,1,5,1.0,asocial
01JVTR9QD0KS2SPX7QDY0N8AX9,28,9,7,1.0,2,0,20,1,5,1.0,asocial
01JVTR9QD0KS2SPX7QDY0N8AX9,29,0,9,1.0,0,0,33,2,7,1.0,asocial
01JVTR9QD0KS2SPX7QDY0N8AX9,29,1,9,1.0,0,0,12,1,7,1.0,asocial
01JVTR9QD0KS2SPX7QDY0N8AX9,29,2,9,1.0,0,0,21,3,7,1.0,asocial
01JVTR9QD0KS2SPX7QDY0N8AX9,29,3,9,1.0,0,0,39,3,7,1.0,asocial
01JVTR9QD0KS2SPX7QDY0N8AX9,29,4,9,1.0,0,0,15,1,7,1.0,asocial
01JVTR9QD0KS2SPX7QDY0N8AX9,29,5,9,1.0,18,2,47,8,7,1.0,asocial
01JVTR9QD0KS2SPX7QDY0N8AX9,29,6,9,1.0,0,0,29,5,7,1.0,asocial
01JVTR9QD0KS2SPX7QDY0N8AX9,29,7,9,1.0,5,1,14,4,7,1.0,asocial
01JVTR9QD0KS2SPX7QDY0N8AX9,29,8,9,1.0,0,0,17,1,7,1.0,asocial
01JVTR9QD0KS2SPX7QDY0N8AX9,29,9,9,1.0,2,0,20,1,7,1.0,asocial
01JVTR9QD0KS2SPX7QDY0N8AX9,30,0,5,1.0,0,0,33,3,9,1.0,asocial
01JVTR9QD0KS2SPX7QDY0N8AX9,30,1,5,1.0,0,0,13,1,9,1.0,asocial
01JVTR9QD0KS2SPX7QDY0N8AX9,30,2,5,1.0,0,0,23,3,9,1.0,asocial
01JVTR9QD0KS2SPX7QDY0N8AX9,30,3,5,1.0,0,0,40,4,9,1.0,asocial
01JVTR9QD0KS2SPX7QDY0N8AX9,30,4,5,1.0,0,0,15,1,9,1.0,asocial
01JVTR9QD0KS2SPX7QDY0N8AX9,30,5,5,1.0,18,2,47,8,9,1.0,asocial
01JVTR9QD0KS2SPX7QDY0N8AX9,30,6,5,1.0,0,0,30,5,9,1.0,asocial
01JVTR9QD0KS2SPX7QDY0N8AX9,30,7,5,1.0,5,1,14,4,9,1.0,asocial
01JVTR9QD0KS2SPX7QDY0N8AX9,30,8,5,1.0,0,0,18,1,9,1.0,asocial
01JVTR9QD0KS2SPX7QDY0N8AX9,30,9,5,1.0,3,0,22,1,9,1.0,asocial
01JVTR9QD0KS2SPX7QDY0N8AX9,31,0,5,1.0,0,0,34,3,5,1.0,asocial
01JVTR9QD0KS2SPX7QDY0N8AX9,31,1,5,1.0,0,0,14,1,5,1.0,asocial
01JVTR9QD0KS2SPX7QDY0N8AX9,31,2,5,1.0,0,0,23,5,5,1.0,asocial
01JVTR9QD0KS2SPX7QDY0N8AX9,31,3,5,1.0,0,0,41,4,5,1.0,asocial
01JVTR9QD0KS2SPX7QDY0N8AX9,31,4,5,1.0,0,0,16,1,5,1.0,asocial
01JVTR9QD0KS2SPX7QDY0N8AX9,31,5,5,1.0,19,2,48,8,5,1.0,asocial
01JVTR9QD0KS2SPX7QDY0N8AX9,31,6,5,1.0,0,0,32,5,5,1.0,asocial
01JVTR9QD0KS2SPX7QDY0N8AX9,31,7,5,1.0,5,1,14,4,5,1.0,asocial
01JVTR9QD0KS2SPX7QDY0N8AX9,31,8,5,1.0,0,0,19,1,5,1.0,asocial
01JVTR9QD0KS2SPX7QDY0N8AX9,31,9,5,1.0,3,0,22,1,5,1.0,asocial
01JVTR9QD0KS2SPX7QDY0N8AX9,32,0,5,1.0,0,0,35,3,5,1.0,asocial
01JVTR9QD0KS2SPX7QDY0N8AX9,32,1,5,1.0,0,0,16,1,5,1.0,asocial
01JVTR9QD0KS2SPX7QDY0N8AX9,32,2,5,1.0,0,0,24,5,5,1.0,asocial
01JVTR9QD0KS2SPX7QDY0N8AX9,32,3,5,1.0,0,0,43,4,5,1.0,asocial
01JVTR9QD0KS2SPX7QDY0N8AX9,32,4,5,1.0,0,0,16,1,5,1.0,asocial
01JVTR9QD0KS2SPX7QDY0N8AX9,32,5,5,1.0,20,2,49,8,5,1.0,asocial
01JVTR9QD0KS2SPX7QDY0N8AX9,32,6,5,1.0,0,0,33,5,5,1.0,asocial
01JVTR9QD0KS2SPX7QDY0N8AX9,32,7,5,1.0,5,1,14,4,5,1.0,asocial
01JVTR9QD0KS2SPX7QDY0N8AX9,32,8,5,1.0,0,0,20,1,5,1.0,asocial
01JVTR9QD0KS2SPX7QDY0N8AX9,32,9,5,1.0,3,0,23,1,5,1.0,asocial
01JVTR9QD0KS2SPX7QDY0N8AX9,33,0,9,1.0,0,0,36,3,5,1.0,asocial
01JVTR9QD0KS2SPX7QDY0N8AX9,33,1,9,1.0,0,0,17,2,5,1.0,asocial
01JVTR9QD0KS2SPX7QDY0N8AX9,33,2,9,1.0,0,0,24,5,5,1.0,asocial
01JVTR9QD0KS2SPX7QDY0N8AX9,33,3,9,1.0,0,0,44,4,5,1.0,asocial
01JVTR9QD0KS2SPX7QDY0N8AX9,33,4,9,1.0,0,0,17,1,5,1.0,asocial
01JVTR9QD0KS2SPX7QDY0N8AX9,33,5,9,1.0,21,2,50,9,5,1.0,asocial
01JVTR9QD0KS2SPX7QDY0N8AX9,33,6,9,1.0,0,0,34,5,5,1.0,asocial
01JVTR9QD0KS2SPX7QDY0N8AX9,33,7,9,1.0,5,1,14,4,5,1.0,asocial
01JVTR9QD0KS2SPX7QDY0N8AX9,33,8,9,1.0,0,0,21,1,5,1.0,asocial
01JVTR9QD0KS2SPX7QDY0N8AX9,33,9,9,1.0,3,0,24,1,5,1.0,asocial
01JVTR9QD0KS2SPX7QDY0N8AX9,34,0,5,1.0,0,0,37,3,9,1.0,asocial
01JVTR9QD0KS2SPX7QDY0N8AX9,34,1,5,1.0,0,0,19,2,9,1.0,asocial
01JVTR9QD0KS2SPX7QDY0N8AX9,34,2,5,1.0,0,0,24,5,9,1.0,asocial
01JVTR9QD0KS2SPX7QDY0N8AX9,34,3,5,1.0,0,0,45,4,9,1.0,asocial
01JVTR9QD0KS2SPX7QDY0N8AX9,34,4,5,1.0,0,0,18,1,9,1.0,asocial
01JVTR9QD0KS2SPX7QDY0N8AX9,34,5,5,1.0,21,2,50,9,9,1.0,asocial
01JVTR9QD0KS2SPX7QDY0N8AX9,34,6,5,1.0,0,0,35,5,9,1.0,asocial
01JVTR9QD0KS2SPX7QDY0N8AX9,34,7,5,1.0,5,1,15,4,9,1.0,asocial
01JVTR9QD0KS2SPX7QDY0N8AX9,34,8,5,1.0,0,0,23,1,9,1.0,asocial
01JVTR9QD0KS2SPX7QDY0N8AX9,34,9,5,1.0,4,0,25,1,9,1.0,asocial
01JVTR9QD0KS2SPX7QDY0N8AX9,35,0,5,1.0,0,0,38,3,5,1.0,asocial
01JVTR9QD0KS2SPX7QDY0N8AX9,35,1,5,1.0,0,0,21,2,5,1.0,asocial
01JVTR9QD0KS2SPX7QDY0N8AX9,35,2,5,1.0,0,0,24,5,5,1.0,asocial
01JVTR9QD0KS2SPX7QDY0N8AX9,35,3,5,1.0,0,0,47,4,5,1.0,asocial
01JVTR9QD0KS2SPX7QDY0N8AX9,35,4,5,1.0,0,0,18,2,5,1.0,asocial
01JVTR9QD0KS2SPX7QDY0N8AX9,35,5,5,1.0,22,2,51,9,5,1.0,asocial
01JVTR9QD0KS2SPX7QDY0N8AX9,35,6,5,1.0,0,0,37,5,5,1.0,asocial
01JVTR9QD0KS2SPX7QDY0N8AX9,35,7,5,1.0,5,1,15,4,5,1.0,asocial
01JVTR9QD0KS2SPX7QDY0N8AX9,35,8,5,1.0,0,0,24,1,5,1.0,asocial
01JVTR9QD0KS2SPX7QDY0N8AX9,35,9,5,1.0,4,0,25,1,5,1.0,asocial
01JVTR9QD0KS2SPX7QDY0N8AX9,36,0,5,1.0,0,0,39,3,5,1.0,asocial
01JVTR9QD0KS2SPX7QDY0N8AX9,36,1,5,1.0,0,0,23,2,5,1.0,asocial
01JVTR9QD0KS2SPX7QDY0N8AX9,36,2,5,1.0,0,0,24,5,5,1.0,asocial
01JVTR9QD0KS2SPX7QDY0N8AX9,36,3,5,1.0,0,0,51,4,5,1.0,asocial
01JVTR9QD0KS2SPX7QDY0N8AX9,36,4,5,1.0,0,0,18,2,5,1.0,asocial
01JVTR9QD0KS2SPX7QDY0N8AX9,36,5,5,1.0,23,2,52,9,5,1.0,asocial
01JVTR9QD0KS2SPX7QDY0N8AX9,36,6,5,1.0,0,0,38,5,5,1.0,asocial
01JVTR9QD0KS2SPX7QDY0N8AX9,36,7,5,1.0,5,1,15,4,5,1.0,asocial
01JVTR9QD0KS2SPX7QDY0N8AX9,36,8,5,1.0,0,0,25,1,5,1.0,asocial
01JVTR9QD0KS2SPX7QDY0N8AX9,36,9,5,1.0,4,0,25,1,5,1.0,asocial
01JVTR9QD0KS2SPX7QDY0N8AX9,37,0,9,1.0,0,0,40,3,5,1.0,asocial
01JVTR9QD0KS2SPX7QDY0N8AX9,37,1,9,1.0,0,0,25,2,5,1.0,asocial
01JVTR9QD0KS2SPX7QDY0N8AX9,37,2,9,1.0,0,0,24,5,5,1.0,asocial
01JVTR9QD0KS2SPX7QDY0N8AX9,37,3,9,1.0,0,0,54,4,5,1.0,asocial
01JVTR9QD0KS2SPX7QDY0N8AX9,37,4,9,1.0,0,0,19,2,5,1.0,asocial
01JVTR9QD0KS2SPX7QDY0N8AX9,37,5,9,1.0,24,2,53,9,5,1.0,asocial
01JVTR9QD0KS2SPX7QDY0N8AX9,37,6,9,1.0,0,0,39,5,5,1.0,asocial
01JVTR9QD0KS2SPX7QDY0N8AX9,37,7,9,1.0,5,1,15,4,5,1.0,asocial
01JVTR9QD0KS2SPX7QDY0N8AX9,37,8,9,1.0,0,0,26,1,5,1.0,asocial
01JVTR9QD0KS2SPX7QDY0N8AX9,37,9,9,1.0,4,0,25,1,5,1.0,asocial
01JVTR9QD0KS2SPX7QDY0N8AX9,38,0,5,1.0,0,0,41,3,9,1.0,asocial
01JVTR9QD0KS2SPX7QDY0N8AX9,38,1,5,1.0,0,0,27,2,9,1.0,asocial
01JVTR9QD0KS2SPX7QDY0N8AX9,38,2,5,1.0,0,0,24,5,9,1.0,asocial
01JVTR9QD0KS2SPX7QDY0N8AX9,38,3,5,1.0,0,0,57,4,9,1.0,asocial
01JVTR9QD0KS2SPX7QDY0N8AX9,38,4,5,1.0,0,0,19,2,9,1.0,asocial
01JVTR9QD0KS2SPX7QDY0N8AX9,38,5,5,1.0,24,2,53,9,9,1.0,asocial
01JVTR9QD0KS2SPX7QDY0N8AX9,38,6,5,1.0,0,0,40,5,9,1.0,asocial
01JVTR9QD0KS2SPX7QDY0N8AX9,38,7,5,1.0,5,1,15,4,9,1.0,asocial
01JVTR9QD0KS2SPX7QDY0N8AX9,38,8,5,1.0,0,0,26,2,9,1.0,asocial
01JVTR9QD0KS2SPX7QDY0N8AX9,38,9,5,1.0,5,0,27,1,9,1.0,asocial
01JVTR9QD0KS2SPX7QDY0N8AX9,39,0,5,1.0,0,0,42,3,5,1.0,asocial
01JVTR9QD0KS2SPX7QDY0N8AX9,39,1,5,1.0,0,0,28,2,5,1.0,asocial
01JVTR9QD0KS2SPX7QDY0N8AX9,39,2,5,1.0,0,0,24,5,5,1.0,asocial
01JVTR9QD0KS2SPX7QDY0N8AX9,39,3,5,1.0,0,0,60,4,5,1.0,asocial
01JVTR9QD0KS2SPX7QDY0N8AX9,39,4,5,1.0,0,0,20,2,5,1.0,asocial
01JVTR9QD0KS2SPX7QDY0N8AX9,39,5,5,1.0,25,2,54,9,5,1.0,asocial
01JVTR9QD0KS2SPX7QDY0N8AX9,39,6,5,1.0,0,0,41,5,5,1.0,asocial
01JVTR9QD0KS2SPX7QDY0N8AX9,39,7,5,1.0,5,1,15,4,5,1.0,asocial
01JVTR9QD0KS2SPX7QDY0N8AX9,39,8,5,1.0,0,0,27,2,5,1.0,asocial
01JVTR9QD0KS2SPX7QDY0N8AX9,39,9,5,1.0,5,0,28,1,5,1.0,asocial
01JVTR9QD0KS2SPX7QDY0N8AX9,40,0,5,1.0,0,0,43,3,5,1.0,asocial
01JVTR9QD0KS2SPX7QDY0N8AX9,40,1,5,1.0,0,0,29,2,5,1.0,asocial
01JVTR9QD0KS2SPX7QDY0N8AX9,40,2,5,1.0,0,0,24,5,5,1.0,asocial
01JVTR9QD0KS2SPX7QDY0N8AX9,40,3,5,1.0,0,0,63,4,5,1.0,asocial
01JVTR9QD0KS2SPX7QDY0N8AX9,40,4,5,1.0,0,0,21,2,5,1.0,asocial
01JVTR9QD0KS2SPX7QDY0N8AX9,40,5,5,1.0,26,2,55,9,5,1.0,asocial
01JVTR9QD0KS2SPX7QDY0N8AX9,40,6,5,1.0,0,0,42,5,5,1.0,asocial
01JVTR9QD0KS2SPX7QDY0N8AX9,40,7,5,1.0,5,1,15,4,5,1.0,asocial
01JVTR9QD0KS2SPX7QDY0N8AX9,40,8,5,1.0,0,0,27,2,5,1.0,asocial
01JVTR9QD0KS2SPX7QDY0N8AX9,40,9,5,1.0,5,0,29,2,5,1.0,asocial
01JVTR9QD0KS2SPX7QDY0N8AX9,41,0,7,1.0,0,0,44,3,5,1.0,asocial
01JVTR9QD0KS2SPX7QDY0N8AX9,41,1,7,1.0,0,0,30,2,5,1.0,asocial
01JVTR9QD0KS2SPX7QDY0N8AX9,41,2,7,1.0,0,0,24,5,5,1.0,asocial
01JVTR9QD0KS2SPX7QDY0N8AX9,41,3,7,1.0,0,0,66,4,5,1.0,asocial
01JVTR9QD0KS2SPX7QDY0N8AX9,41,4,7,1.0,0,0,22,2,5,1.0,asocial
01JVTR9QD0KS2SPX7QDY0N8AX9,41,5,7,1.0,27,2,56,9,5,1.0,asocial
01JVTR9QD0KS2SPX7QDY0N8AX9,41,6,7,1.0,0,0,43,5,5,1.0,asocial
01JVTR9QD0KS2SPX7QDY0N8AX9,41,7,7,1.0,5,1,15,4,5,1.0,asocial
01JVTR9QD0KS2SPX7QDY0N8AX9,41,8,7,1.0,0,0,28,2,5,1.0,asocial
01JVTR9QD0KS2SPX7QDY0N8AX9,41,9,7,1.0,5,0,30,2,5,1.0,asocial
01JVTR9QD0KS2SPX7QDY0N8AX9,42,0,9,1.0,0,0,45,3,7,1.0,asocial
01JVTR9QD0KS2SPX7QDY0N8AX9,42,1,9,1.0,0,0,31,2,7,1.0,asocial
01JVTR9QD0KS2SPX7QDY0N8AX9,42,2,9,1.0,0,0,24,5,7,1.0,asocial
01JVTR9QD0KS2SPX7QDY0N8AX9,42,3,9,1.0,0,0,69,4,7,1.0,asocial
01JVTR9QD0KS2SPX7QDY0N8AX9,42,4,9,1.0,0,0,23,2,7,1.0,asocial
01JVTR9QD0KS2SPX7QDY0N8AX9,42,5,9,1.0,27,2,56,9,7,1.0,asocial
01JVTR9QD0KS2SPX7QDY0N8AX9,42,6,9,1.0,0,0,44,5,7,1.0,asocial
01JVTR9QD0KS2SPX7QDY0N8AX9,42,7,9,1.0,6,1,16,4,7,1.0,asocial
01JVTR9QD0KS2SPX7QDY0N8AX9,42,8,9,1.0,0,0,29,2,7,1.0,asocial
01JVTR9QD0KS2SPX7QDY0N8AX9,42,9,9,1.0,5,0,31,2,7,1.0,asocial
01JVTR9QD0KS2SPX7QDY0N8AX9,43,0,5,1.0,0,0,46,3,9,1.0,asocial
01JVTR9QD0KS2SPX7QDY0N8AX9,43,1,5,1.0,0,0,32,2,9,1.0,asocial
01JVTR9QD0KS2SPX7QDY0N8AX9,43,2,5,1.0,0,0,24,5,9,1.0,asocial
01JVTR9QD0KS2SPX7QDY0N8AX9,43,3,5,1.0,0,0,72,4,9,1.0,asocial
01JVTR9QD0KS2SPX7QDY0N8AX9,43,4,5,1.0,0,0,24,2,9,1.0,asocial
01JVTR9QD0KS2SPX7QDY0N8AX9,43,5,5,1.0,27,2,56,9,9,1.0,asocial
01JVTR9QD0KS2SPX7QDY0N8AX9,43,6,5,1.0,0,0,45,5,9,1.0,asocial
01JVTR9QD0KS2SPX7QDY0N8AX9,43,7,5,1.0,6,1,16,4,9,1.0,asocial
01JVTR9QD0KS2SPX7QDY0N8AX9,43,8,5,1.0,0,0,30,2,9,1.0,asocial
01JVTR9QD0KS2SPX7QDY0N8AX9,43,9,5,1.0,6,0,33,2,9,1.0,asocial
01JVTR9QD0KS2SPX7QDY0N8AX9,44,0,9,1.0,0,0,47,3,5,1.0,asocial
01JVTR9QD0KS2SPX7QDY0N8AX9,44,1,9,1.0,0,0,33,2,5,1.0,asocial
01JVTR9QD0KS2SPX7QDY0N8AX9,44,2,9,1.0,0,0,24,5,5,1.0,asocial
01JVTR9QD0KS2SPX7QDY0N8AX9,44,3,9,1.0,0,0,73,5,5,1.0,asocial
01JVTR9QD0KS2SPX7QDY0N8AX9,44,4,9,1.0,0,0,25,2,5,1.0,asocial
01JVTR9QD0KS2SPX7QDY0N8AX9,44,5,9,1.0,28,2,58,9,5,1.0,asocial
01JVTR9QD0KS2SPX7QDY0N8AX9,44,6,9,1.0,0,0,46,5,5,1.0,asocial
01JVTR9QD0KS2SPX7QDY0N8AX9,44,7,9,1.0,6,1,16,4,5,1.0,asocial
01JVTR9QD0KS2SPX7QDY0N8AX9,44,8,9,1.0,0,0,31,2,5,1.0,asocial
01JVTR9QD0KS2SPX7QDY0N8AX9,44,9,9,1.0,6,0,34,2,5,1.0,asocial
01JVTR9QD0KS2SPX7QDY0N8AX9,45,0,9,1.0,0,0,48,3,9,1.0,asocial
01JVTR9QD0KS2SPX7QDY0N8AX9,45,1,9,1.0,0,0,34,2,9,1.0,asocial
01JVTR9QD0KS2SPX7QDY0N8AX9,45,2,9,1.0,0,0,24,5,9,1.0,asocial
01JVTR9QD0KS2SPX7QDY0N8AX9,45,3,9,1.0,0,0,76,5,9,1.0,asocial
01JVTR9QD0KS2SPX7QDY0N8AX9,45,4,9,1.0,0,0,25,3,9,1.0,asocial
01JVTR9QD0KS2SPX7QDY0N8AX9,45,5,9,1.0,28,2,58,9,9,1.0,asocial
01JVTR9QD0KS2SPX7QDY0N8AX9,45,6,9,1.0,0,0,47,5,9,1.0,asocial
01JVTR9QD0KS2SPX7QDY0N8AX9,45,7,9,1.0,6,1,16,4,9,1.0,asocial
01JVTR9QD0KS2SPX7QDY0N8AX9,45,8,9,1.0,0,0,31,3,9,1.0,asocial
01JVTR9QD0KS2SPX7QDY0N8AX9,45,9,9,1.0,7,0,36,2,9,1.0,asocial
01JVTR9QD0KS2SPX7QDY0N8AX9,46,0,9,1.0,0,0,49,3,9,1.0,asocial
01JVTR9QD0KS2SPX7QDY0N8AX9,46,1,9,1.0,0,0,35,2,9,1.0,asocial
01JVTR9QD0KS2SPX7QDY0N8AX9,46,2,9,1.0,0,0,24,5,9,1.0,asocial
01JVTR9QD0KS2SPX7QDY0N8AX9,46,3,9,1.0,0,0,80,5,9,1.0,asocial
01JVTR9QD0KS2SPX7QDY0N8AX9,46,4,9,1.0,0,0,26,3,9,1.0,asocial
01JVTR9QD0KS2SPX7QDY0N8AX9,46,5,9,1.0,28,2,58,9,9,1.0,asocial
01JVTR9QD0KS2SPX7QDY0N8AX9,46,6,9,1.0,0,0,49,5,9,1.0,asocial
01JVTR9QD0KS2SPX7QDY0N8AX9,46,7,9,1.0,6,1,16,4,9,1.0,asocial
01JVTR9QD0KS2SPX7QDY0N8AX9,46,8,9,1.0,0,0,31,3,9,1.0,asocial
01JVTR9QD0KS2SPX7QDY0N8AX9,46,9,9,1.0,8,0,37,2,9,1.0,asocial
01JVTR9QD0KS2SPX7QDY0N8AX9,47,0,9,1.0,0,0,50,3,9,1.0,asocial
01JVTR9QD0KS2SPX7QDY0N8AX9,47,1,9,1.0,0,0,36,2,9,1.0,asocial
01JVTR9QD0KS2SPX7QDY0N8AX9,47,2,9,1.0,0,0,24,5,9,1.0,asocial
01JVTR9QD0KS2SPX7QDY0N8AX9,47,3,9,1.0,0,0,83,6,9,1.0,asocial
01JVTR9QD0KS2SPX7QDY0N8AX9,47,4,9,1.0,0,0,27,3,9,1.0,asocial
01JVTR9QD0KS2SPX7QDY0N8AX9,47,5,9,1.0,28,2,58,9,9,1.0,asocial
01JVTR9QD0KS2SPX7QDY0N8AX9,47,6,9,1.0,0,0,51,5,9,1.0,asocial
01JVTR9QD0KS2SPX7QDY0N8AX9,47,7,9,1.0,6,1,16,4,9,1.0,asocial
01JVTR9QD0KS2SPX7QDY0N8AX9,47,8,9,1.0,0,0,31,3,9,1.0,asocial
01JVTR9QD0KS2SPX7QDY0N8AX9,47,9,9,1.0,9,0,38,2,9,1.0,asocial
01JVTR9QD0KS2SPX7QDY0N8AX9,48,0,9,1.0,0,0,51,3,9,1.0,asocial
01JVTR9QD0KS2SPX7QDY0N8AX9,48,1,9,1.0,0,0,37,2,9,1.0,asocial
01JVTR9QD0KS2SPX7QDY0N8AX9,48,2,9,1.0,0,0,24,5,9,1.0,asocial
01JVTR9QD0KS2SPX7QDY0N8AX9,48,3,9,1.0,0,0,86,6,9,1.0,asocial
01JVTR9QD0KS2SPX7QDY0N8AX9,48,4,9,1.0,0,0,28,3,9,1.0,asocial
01JVTR9QD0KS2SPX7QDY0N8AX9,48,5,9,1.0,28,2,58,9,9,1.0,asocial
01JVTR9QD0KS2SPX7QDY0N8AX9,48,6,9,1.0,0,0,53,5,9,1.0,asocial
01JVTR9QD0KS2SPX7QDY0N8AX9,48,7,9,1.0,6,1,16,4,9,1.0,asocial
01JVTR9QD0KS2SPX7QDY0N8AX9,48,8,9,1.0,0,0,31,3,9,1.0,asocial
01JVTR9QD0KS2SPX7QDY0N8AX9,48,9,9,1.0,10,0,40,2,9,1.0,asocial
01JVTR9QD0KS2SPX7QDY0N8AX9,49,0,5,1.0,0,0,52,3,9,1.0,asocial
01JVTR9QD0KS2SPX7QDY0N8AX9,49,1,5,1.0,0,0,38,2,9,1.0,asocial
01JVTR9QD0KS2SPX7QDY0N8AX9,49,2,5,1.0,0,0,24,5,9,1.0,asocial
01JVTR9QD0KS2SPX7QDY0N8AX9,49,3,5,1.0,0,0,89,6,9,1.0,asocial
01JVTR9QD0KS2SPX7QDY0N8AX9,49,4,5,1.0,0,0,28,3,9,1.0,asocial
01JVTR9QD0KS2SPX7QDY0N8AX9,49,5,5,1.0,28,2,58,9,9,1.0,asocial
01JVTR9QD0KS2SPX7QDY0N8AX9,49,6,5,1.0,0,0,55,5,9,1.0,asocial
01JVTR9QD0KS2SPX7QDY0N8AX9,49,7,5,1.0,6,1,16,4,9,1.0,asocial
01JVTR9QD0KS2SPX7QDY0N8AX9,49,8,5,1.0,0,0,31,3,9,1.0,asocial
01JVTR9QD0KS2SPX7QDY0N8AX9,49,9,5,1.0,11,0,42,3,9,1.0,asocial
01JVTR9QD0KS2SPX7QDY0N8AX9,50,0,5,1.0,0,0,53,3,5,1.0,asocial
01JVTR9QD0KS2SPX7QDY0N8AX9,50,1,5,1.0,0,0,39,2,5,1.0,asocial
01JVTR9QD0KS2SPX7QDY0N8AX9,50,2,5,1.0,0,0,24,5,5,1.0,asocial
01JVTR9QD0KS2SPX7QDY0N8AX9,50,3,5,1.0,0,0,92,6,5,1.0,asocial
01JVTR9QD0KS2SPX7QDY0N8AX9,50,4,5,1.0,0,0,28,4,5,1.0,asocial
01JVTR9QD0KS2SPX7QDY0N8AX9,50,5,5,1.0,29,2,59,9,5,1.0,asocial
01JVTR9QD0KS2SPX7QDY0N8AX9,50,6,5,1.0,0,0,57,5,5,1.0,asocial
01JVTR9QD0KS2SPX7QDY0N8AX9,50,7,5,1.0,6,1,16,4,5,1.0,asocial
01JVTR9QD0KS2SPX7QDY0N8AX9,50,8,5,1.0,0,0,31,3,5,1.0,asocial
01JVTR9QD0KS2SPX7QDY0N8AX9,50,9,5,1.0,11,0,43,3,5,1.0,asocial
01JVTR9QD0KS2SPX7QDY0N8AX9,51,0,5,1.0,0,0,54,3,5,1.0,asocial
01JVTR9QD0KS2SPX7QDY0N8AX9,51,1,5,1.0,0,0,40,2,5,1.0,asocial
01JVTR9QD0KS2SPX7QDY0N8AX9,51,2,5,1.0,0,0,24,5,5,1.0,asocial
01JVTR9QD0KS2SPX7QDY0N8AX9,51,3,5,1.0,0,0,95,6,5,1.0,asocial
01JVTR9QD0KS2SPX7QDY0N8AX9,51,4,5,1.0,0,0,28,4,5,1.0,asocial
01JVTR9QD0KS2SPX7QDY0N8AX9,51,5,5,1.0,30,2,60,9,5,1.0,asocial
01JVTR9QD0KS2SPX7QDY0N8AX9,51,6,5,1.0,0,0,59,5,5,1.0,asocial
01JVTR9QD0KS2SPX7QDY0N8AX9,51,7,5,1.0,6,1,16,4,5,1.0,asocial
01JVTR9QD0KS2SPX7QDY0N8AX9,51,8,5,1.0,0,0,32,3,5,1.0,asocial
01JVTR9QD0KS2SPX7QDY0N8AX9,51,9,5,1.0,11,0,44,3,5,1.0,asocial
01JVTRA85X3DQ0TYNXS6VDR197,1,0,9,1.0,0,0,0,0,-1,,asocial
01JVTRA85X3DQ0TYNXS6VDR197,1,1,9,1.0,0,0,0,0,-1,,asocial
01JVTRA85X3DQ0TYNXS6VDR197,1,2,9,1.0,0,0,0,0,-1,,asocial
01JVTRA85X3DQ0TYNXS6VDR197,1,3,9,1.0,0,0,0,0,-1,,asocial
01JVTRA85X3DQ0TYNXS6VDR197,1,4,9,1.0,0,0,0,0,-1,,asocial
01JVTRA85X3DQ0TYNXS6VDR197,1,5,9,1.0,0,0,0,0,-1,,asocial
01JVTRA85X3DQ0TYNXS6VDR197,1,6,9,1.0,0,0,0,0,-1,,asocial
01JVTRA85X3DQ0TYNXS6VDR197,1,7,9,1.0,0,0,0,0,-1,,asocial
01JVTRA85X3DQ0TYNXS6VDR197,1,8,9,1.0,0,0,0,0,-1,,asocial
01JVTRA85X3DQ0TYNXS6VDR197,1,9,9,1.0,0,0,0,0,-1,,asocial
01JVTRA85X3DQ0TYNXS6VDR197,2,0,9,1.0,0,0,1,0,9,1.0,asocial
01JVTRA85X3DQ0TYNXS6VDR197,2,1,9,1.0,0,0,1,0,9,1.0,asocial
01JVTRA85X3DQ0TYNXS6VDR197,2,2,9,1.0,0,0,1,0,9,1.0,asocial
01JVTRA85X3DQ0TYNXS6VDR197,2,3,9,1.0,0,0,1,0,9,1.0,asocial
01JVTRA85X3DQ0TYNXS6VDR197,2,4,9,1.0,0,0,1,0,9,1.0,asocial
01JVTRA85X3DQ0TYNXS6VDR197,2,5,9,1.0,0,0,1,0,9,1.0,asocial
01JVTRA85X3DQ0TYNXS6VDR197,2,6,9,1.0,0,0,1,0,9,1.0,asocial
01JVTRA85X3DQ0TYNXS6VDR197,2,7,9,1.0,0,0,1,0,9,1.0,asocial
01JVTRA85X3DQ0TYNXS6VDR197,2,8,9,1.0,0,0,1,0,9,1.0,asocial
01JVTRA85X3DQ0TYNXS6VDR197,2,9,9,1.0,1,0,1,0,9,1.0,asocial
01JVTRA85X3DQ0TYNXS6VDR197,3,0,9,1.0,0,0,2,0,9,1.0,asocial
01JVTRA85X3DQ0TYNXS6VDR197,3,1,9,1.0,0,0,1,0,9,1.0,asocial
01JVTRA85X3DQ0TYNXS6VDR197,3,2,9,1.0,0,0,2,0,9,1.0,asocial
01JVTRA85X3DQ0TYNXS6VDR197,3,3,9,1.0,0,0,2,0,9,1.0,asocial
01JVTRA85X3DQ0TYNXS6VDR197,3,4,9,1.0,0,0,2,0,9,1.0,asocial
01JVTRA85X3DQ0TYNXS6VDR197,3,5,9,1.0,0,0,4,0,9,1.0,asocial
01JVTRA85X3DQ0TYNXS6VDR197,3,6,9,1.0,0,0,2,0,9,1.0,asocial
01JVTRA85X3DQ0TYNXS6VDR197,3,7,9,1.0,0,0,1,0,9,1.0,asocial
01JVTRA85X3DQ0TYNXS6VDR197,3,8,9,1.0,0,0,2,0,9,1.0,asocial
01JVTRA85X3DQ0TYNXS6VDR197,3,9,9,1.0,2,0,2,0,9,1.0,asocial
01JVTRA85X3DQ0TYNXS6VDR197,4,0,9,1.0,0,0,3,0,9,1.0,asocial
01JVTRA85X3DQ0TYNXS6VDR197,4,1,9,1.0,0,0,1,0,9,1.0,asocial
01JVTRA85X3DQ0TYNXS6VDR197,4,2,9,1.0,0,0,4,0,9,1.0,asocial
01JVTRA85X3DQ0TYNXS6VDR197,4,3,9,1.0,0,0,3,0,9,1.0,asocial
01JVTRA85X3DQ0TYNXS6VDR197,4,4,9,1.0,0,0,3,0,9,1.0,asocial
01JVTRA85X3DQ0TYNXS6VDR197,4,5,9,1.0,0,0,6,0,9,1.0,asocial
01JVTRA85X3DQ0TYNXS6VDR197,4,6,9,1.0,0,0,3,1,9,1.0,asocial
01JVTRA85X3DQ0TYNXS6VDR197,4,7,9,1.0,0,0,1,0,9,1.0,asocial
01JVTRA85X3DQ0TYNXS6VDR197,4,8,9,1.0,0,0,2,0,9,1.0,asocial
01JVTRA85X3DQ0TYNXS6VDR197,4,9,9,1.0,3,0,3,0,9,1.0,asocial
01JVTRA85X3DQ0TYNXS6VDR197,5,0,9,1.0,0,0,4,0,9,1.0,asocial
01JVTRA85X3DQ0TYNXS6VDR197,5,1,9,1.0,0,0,1,0,9,1.0,asocial
01JVTRA85X3DQ0TYNXS6VDR197,5,2,9,1.0,0,0,5,0,9,1.0,asocial
01JVTRA85X3DQ0TYNXS6VDR197,5,3,9,1.0,0,0,5,0,9,1.0,asocial
01JVTRA85X3DQ0TYNXS6VDR197,5,4,9,1.0,0,0,4,0,9,1.0,asocial
01JVTRA85X3DQ0TYNXS6VDR197,5,5,9,1.0,0,0,9,0,9,1.0,asocial
01JVTRA85X3DQ0TYNXS6VDR197,5,6,9,1.0,0,0,4,1,9,1.0,asocial
01JVTRA85X3DQ0TYNXS6VDR197,5,7,9,1.0,0,0,1,0,9,1.0,asocial
01JVTRA85X3DQ0TYNXS6VDR197,5,8,9,1.0,0,0,2,0,9,1.0,asocial
01JVTRA85X3DQ0TYNXS6VDR197,5,9,9,1.0,4,0,4,0,9,1.0,asocial
01JVTRA85X3DQ0TYNXS6VDR197,6,0,9,1.0,0,0,6,0,9,1.0,asocial
01JVTRA85X3DQ0TYNXS6VDR197,6,1,9,1.0,0,0,1,0,9,1.0,asocial
01JVTRA85X3DQ0TYNXS6VDR197,6,2,9,1.0,0,0,6,0,9,1.0,asocial
01JVTRA85X3DQ0TYNXS6VDR197,6,3,9,1.0,0,0,6,0,9,1.0,asocial
01JVTRA85X3DQ0TYNXS6VDR197,6,4,9,1.0,0,0,5,0,9,1.0,asocial
01JVTRA85X3DQ0TYNXS6VDR197,6,5,9,1.0,0,0,11,0,9,1.0,asocial
01JVTRA85X3DQ0TYNXS6VDR197,6,6,9,1.0,0,0,5,1,9,1.0,asocial
01JVTRA85X3DQ0TYNXS6VDR197,6,7,9,1.0,0,0,2,0,9,1.0,asocial
01JVTRA85X3DQ0TYNXS6VDR197,6,8,9,1.0,0,0,2,0,9,1.0,asocial
01JVTRA85X3DQ0TYNXS6VDR197,6,9,9,1.0,5,0,5,0,9,1.0,asocial
01JVTRA85X3DQ0TYNXS6VDR197,7,0,9,1.0,0,0,7,0,9,1.0,asocial
01JVTRA85X3DQ0TYNXS6VDR197,7,1,9,1.0,0,0,1,0,9,1.0,asocial
01JVTRA85X3DQ0TYNXS6VDR197,7,2,9,1.0,0,0,7,0,9,1.0,asocial
01JVTRA85X3DQ0TYNXS6VDR197,7,3,9,1.0,0,0,7,0,9,1.0,asocial
01JVTRA85X3DQ0TYNXS6VDR197,7,4,9,1.0,0,0,6,0,9,1.0,asocial
01JVTRA85X3DQ0TYNXS6VDR197,7,5,9,1.0,0,0,12,1,9,1.0,asocial
01JVTRA85X3DQ0TYNXS6VDR197,7,6,9,1.0,0,0,6,1,9,1.0,asocial
01JVTRA85X3DQ0TYNXS6VDR197,7,7,9,1.0,0,0,2,0,9,1.0,asocial
01JVTRA85X3DQ0TYNXS6VDR197,7,8,9,1.0,0,0,3,0,9,1.0,asocial
01JVTRA85X3DQ0TYNXS6VDR197,7,9,9,1.0,6,0,7,0,9,1.0,asocial
01JVTRA85X3DQ0TYNXS6VDR197,8,0,9,1.0,0,0,8,0,9,1.0,asocial
01JVTRA85X3DQ0TYNXS6VDR197,8,1,9,1.0,0,0,1,0,9,1.0,asocial
01JVTRA85X3DQ0TYNXS6VDR197,8,2,9,1.0,0,0,8,0,9,1.0,asocial
01JVTRA85X3DQ0TYNXS6VDR197,8,3,9,1.0,0,0,8,0,9,1.0,asocial
01JVTRA85X3DQ0TYNXS6VDR197,8,4,9,1.0,0,0,7,0,9,1.0,asocial
01JVTRA85X3DQ0TYNXS6VDR197,8,5,9,1.0,0,0,15,1,9,1.0,asocial
01JVTRA85X3DQ0TYNXS6VDR197,8,6,9,1.0,0,0,7,2,9,1.0,asocial
01JVTRA85X3DQ0TYNXS6VDR197,8,7,9,1.0,0,0,2,0,9,1.0,asocial
01JVTRA85X3DQ0TYNXS6VDR197,8,8,9,1.0,0,0,3,0,9,1.0,asocial
01JVTRA85X3DQ0TYNXS6VDR197,8,9,9,1.0,7,0,8,0,9,1.0,asocial
01JVTRA85X3DQ0TYNXS6VDR197,9,0,5,1.0,0,0,8,1,9,1.0,asocial
01JVTRA85X3DQ0TYNXS6VDR197,9,1,5,1.0,0,0,1,0,9,1.0,asocial
01JVTRA85X3DQ0TYNXS6VDR197,9,2,5,1.0,0,0,10,0,9,1.0,asocial
01JVTRA85X3DQ0TYNXS6VDR197,9,3,5,1.0,0,0,9,0,9,1.0,asocial
01JVTRA85X3DQ0TYNXS6VDR197,9,4,5,1.0,0,0,8,0,9,1.0,asocial
01JVTRA85X3DQ0TYNXS6VDR197,9,5,5,1.0,0,0,18,1,9,1.0,asocial
01JVTRA85X3DQ0TYNXS6VDR197,9,6,5,1.0,0,0,8,2,9,1.0,asocial
01JVTRA85X3DQ0TYNXS6VDR197,9,7,5,1.0,0,0,2,0,9,1.0,asocial
01JVTRA85X3DQ0TYNXS6VDR197,9,8,5,1.0,0,0,3,0,9,1.0,asocial
01JVTRA85X3DQ0TYNXS6VDR197,9,9,5,1.0,8,0,9,0,9,1.0,asocial
01JVTRA85X3DQ0TYNXS6VDR197,10,0,6,1.0,0,0,9,1,5,1.0,asocial
01JVTRA85X3DQ0TYNXS6VDR197,10,1,6,1.0,0,0,1,0,5,1.0,asocial
01JVTRA85X3DQ0TYNXS6VDR197,10,2,6,1.0,0,0,11,0,5,1.0,asocial
01JVTRA85X3DQ0TYNXS6VDR197,10,3,6,1.0,0,0,10,0,5,1.0,asocial
01JVTRA85X3DQ0TYNXS6VDR197,10,4,6,1.0,0,0,9,0,5,1.0,asocial
01JVTRA85X3DQ0TYNXS6VDR197,10,5,6,1.0,1,0,21,1,5,1.0,asocial
01JVTRA85X3DQ0TYNXS6VDR197,10,6,6,1.0,0,0,9,3,5,1.0,asocial
01JVTRA85X3DQ0TYNXS6VDR197,10,7,6,1.0,0,0,3,0,5,1.0,asocial
01JVTRA85X3DQ0TYNXS6VDR197,10,8,6,1.0,0,0,3,0,5,1.0,asocial
01JVTRA85X3DQ0TYNXS6VDR197,10,9,6,1.0,8,0,9,0,5,1.0,asocial
01JVTRA85X3DQ0TYNXS6VDR197,11,0,3,1.0,0,0,10,1,6,1.0,asocial
01JVTRA85X3DQ0TYNXS6VDR197,11,1,3,1.0,0,0,1,0,6,1.0,asocial
01JVTRA85X3DQ0TYNXS6VDR197,11,2,3,1.0,0,0,12,0,6,1.0,asocial
01JVTRA85X3DQ0TYNXS6VDR197,11,3,3,1.0,0,0,11,0,6,1.0,asocial
01JVTRA85X3DQ0TYNXS6VDR197,11,4,3,1.0,0,0,10,0,6,1.0,asocial
01JVTRA85X3DQ0TYNXS6VDR197,11,5,3,1.0,1,0,23,1,6,1.0,asocial
01JVTRA85X3DQ0TYNXS6VDR197,11,6,3,1.0,1,0,11,3,6,1.0,asocial
01JVTRA85X3DQ0TYNXS6VDR197,11,7,3,1.0,0,0,4,0,6,1.0,asocial
01JVTRA85X3DQ0TYNXS6VDR197,11,8,3,1.0,0,0,4,0,6,1.0,asocial
01JVTRA85X3DQ0TYNXS6VDR197,11,9,3,1.0,8,0,9,0,6,1.0,asocial
01JVTRA85X3DQ0TYNXS6VDR197,12,0,6,1.0,0,0,11,1,3,1.0,asocial
01JVTRA85X3DQ0TYNXS6VDR197,12,1,6,1.0,0,0,1,0,3,1.0,asocial
01JVTRA85X3DQ0TYNXS6VDR197,12,2,6,1.0,0,0,13,0,3,1.0,asocial
01JVTRA85X3DQ0TYNXS6VDR197,12,3,6,1.0,1,0,13,0,3,1.0,asocial
01JVTRA85X3DQ0TYNXS6VDR197,12,4,6,1.0,0,0,10,1,3,1.0,asocial
01JVTRA85X3DQ0TYNXS6VDR197,12,5,6,1.0,1,0,25,1,3,1.0,asocial
01JVTRA85X3DQ0TYNXS6VDR197,12,6,6,1.0,1,0,12,3,3,1.0,asocial
01JVTRA85X3DQ0TYNXS6VDR197,12,7,6,1.0,0,0,5,0,3,1.0,asocial
01JVTRA85X3DQ0TYNXS6VDR197,12,8,6,1.0,0,0,4,0,3,1.0,asocial
01JVTRA85X3DQ0TYNXS6VDR197,12,9,6,1.0,8,0,10,0,3,1.0,asocial
01JVTRA85X3DQ0TYNXS6VDR197,13,0,1,1.0,0,0,12,1,6,1.0,asocial
01JVTRA85X3DQ0TYNXS6VDR197,13,1,1,1.0,0,0,1,0,6,1.0,asocial
01JVTRA85X3DQ0TYNXS6VDR197,13,2,1,1.0,0,0,14,0,6,1.0,asocial
01JVTRA85X3DQ0TYNXS6VDR197,13,3,1,1.0,1,0,14,0,6,1.0,asocial
01JVTRA85X3DQ0TYNXS6VDR197,13,4,1,1.0,0,0,10,1,6,1.0,asocial
01JVTRA85X3DQ0TYNXS6VDR197,13,5,1,1.0,1,0,26,2,6,1.0,asocial
01JVTRA85X3DQ0TYNXS6VDR197,13,6,1,1.0,2,0,13,3,6,1.0,asocial
01JVTRA85X3DQ0TYNXS6VDR197,13,7,1,1.0,0,0,6,0,6,1.0,asocial
01JVTRA85X3DQ0TYNXS6VDR197,13,8,1,1.0,0,0,5,0,6,1.0,asocial
01JVTRA85X3DQ0TYNXS6VDR197,13,9,1,1.0,8,0,11,0,6,1.0,asocial
01JVTRA85X3DQ0TYNXS6VDR197,14,0,4,1.0,0,0,13,1,1,1.0,asocial
01JVTRA85X3DQ0TYNXS6VDR197,14,1,4,1.0,1,0,2,0,1,1.0,asocial
01JVTRA85X3DQ0TYNXS6VDR197,14,2,4,1.0,0,0,14,0,1,1.0,asocial
01JVTRA85X3DQ0TYNXS6VDR197,14,3,4,1.0,1,0,15,0,1,1.0,asocial
01JVTRA85X3DQ0TYNXS6VDR197,14,4,4,1.0,0,0,10,1,1,1.0,asocial
01JVTRA85X3DQ0TYNXS6VDR197,14,5,4,1.0,1,0,27,3,1,1.0,asocial
01JVTRA85X3DQ0TYNXS6VDR197,14,6,4,1.0,2,0,13,3,1,1.0,asocial
01JVTRA85X3DQ0TYNXS6VDR197,14,7,4,1.0,0,0,7,0,1,1.0,asocial
01JVTRA85X3DQ0TYNXS6VDR197,14,8,4,1.0,0,0,6,0,1,1.0,asocial
01JVTRA85X3DQ0TYNXS6VDR197,14,9,4,1.0,8,0,13,0,1,1.0,asocial
01JVTRA85X3DQ0TYNXS6VDR197,15,0,7,1.0,0,0,14,1,4,1.0,asocial
01JVTRA85X3DQ0TYNXS6VDR197,15,1,7,1.0,1,0,2,0,4,1.0,asocial
01JVTRA85X3DQ0TYNXS6VDR197,15,2,7,1.0,0,0,14,0,4,1.0,asocial
01JVTRA85X3DQ0TYNXS6VDR197,15,3,7,1.0,1,0,16,0,4,1.0,asocial
01JVTRA85X3DQ0TYNXS6VDR197,15,4,7,1.0,1,0,11,1,4,1.0,asocial
01JVTRA85X3DQ0TYNXS6VDR197,15,5,7,1.0,1,0,29,4,4,1.0,asocial
01JVTRA85X3DQ0TYNXS6VDR197,15,6,7,1.0,2,0,14,3,4,1.0,asocial
01JVTRA85X3DQ0TYNXS6VDR197,15,7,7,1.0,0,0,8,0,4,1.0,asocial
01JVTRA85X3DQ0TYNXS6VDR197,15,8,7,1.0,0,0,7,0,4,1.0,asocial
01JVTRA85X3DQ0TYNXS6VDR197,15,9,7,1.0,8,0,14,0,4,1.0,asocial
01JVTRA85X3DQ0TYNXS6VDR197,16,0,7,0.0,0,0,15,1,7,1.0,asocial
01JVTRA85X3DQ0TYNXS6VDR197,16,1,7,0.0,1,0,3,0,7,1.0,asocial
01JVTRA85X3DQ0TYNXS6VDR197,16,2,7,0.0,0,0,14,0,7,1.0,asocial
01JVTRA85X3DQ0TYNXS6VDR197,16,3,7,0.0,1,0,17,0,7,1.0,asocial
01JVTRA85X3DQ0TYNXS6VDR197,16,4,7,0.0,1,0,11,1,7,1.0,asocial
01JVTRA85X3DQ0TYNXS6VDR197,16,5,7,0.0,1,0,30,4,7,1.0,asocial
01JVTRA85X3DQ0TYNXS6VDR197,16,6,7,0.0,2,0,14,4,7,1.0,asocial
01JVTRA85X3DQ0TYNXS6VDR197,16,7,7,0.0,1,0,11,1,7,1.0,asocial
01JVTRA85X3DQ0TYNXS6VDR197,16,8,7,0.0,0,0,7,0,7,1.0,asocial
01JVTRA85X3DQ0TYNXS6VDR197,16,9,7,0.0,8,0,15,0,7,1.0,asocial
01JVTRA85X3DQ0TYNXS6VDR197,17,0,2,1.0,0,0,16,1,7,0.0,asocial
01JVTRA85X3DQ0TYNXS6VDR197,17,1,2,1.0,1,0,4,0,7,0.0,asocial
01JVTRA85X3DQ0TYNXS6VDR197,17,2,2,1.0,0,0,15,0,7,0.0,asocial
01JVTRA85X3DQ0TYNXS6VDR197,17,3,2,1.0,1,0,18,0,7,0.0,asocial
01JVTRA85X3DQ0TYNXS6VDR197,17,4,2,1.0,1,0,11,1,7,0.0,asocial
01JVTRA85X3DQ0TYNXS6VDR197,17,5,2,1.0,1,0,32,4,7,0.0,asocial
01JVTRA85X3DQ0TYNXS6VDR197,17,6,2,1.0,2,0,15,4,7,0.0,asocial
01JVTRA85X3DQ0TYNXS6VDR197,17,7,2,1.0,1,1,11,3,7,0.0,asocial
01JVTRA85X3DQ0TYNXS6VDR197,17,8,2,1.0,0,0,7,0,7,0.0,asocial
01JVTRA85X3DQ0TYNXS6VDR197,17,9,2,1.0,8,0,16,0,7,0.0,asocial
01JVTRA85X3DQ0TYNXS6VDR197,18,0,0,1.0,0,0,17,1,2,1.0,asocial
01JVTRA85X3DQ0TYNXS6VDR197,18,1,0,1.0,1,0,5,0,2,1.0,asocial
01JVTRA85X3DQ0TYNXS6VDR197,18,2,0,1.0,1,0,17,0,2,1.0,asocial
01JVTRA85X3DQ0TYNXS6VDR197,18,3,0,1.0,1,0,19,0,2,1.0,asocial
01JVTRA85X3DQ0TYNXS6VDR197,18,4,0,1.0,1,0,11,1,2,1.0,asocial
01JVTRA85X3DQ0TYNXS6VDR197,18,5,0,1.0,1,0,34,4,2,1.0,asocial
01JVTRA85X3DQ0TYNXS6VDR197,18,6,0,1.0,2,0,16,4,2,1.0,asocial
01JVTRA85X3DQ0TYNXS6VDR197,18,7,0,1.0,1,1,11,3,2,1.0,asocial
01JVTRA85X3DQ0TYNXS6VDR197,18,8,0,1.0,0,0,8,0,2,1.0,asocial
01JVTRA85X3DQ0TYNXS6VDR197,18,9,0,1.0,8,0,17,0,2,1.0,asocial
01JVTRA85X3DQ0TYNXS6VDR197,19,0,8,1.0,1,0,19,1,0,1.0,asocial
01JVTRA85X3DQ0TYNXS6VDR197,19,1,8,1.0,1,0,6,0,0,1.0,asocial
01JVTRA85X3DQ0TYNXS6VDR197,19,2,8,1.0,1,0,17,1,0,1.0,asocial
01JVTRA85X3DQ0TYNXS6VDR197,19,3,8,1.0,1,0,19,1,0,1.0,asocial
01JVTRA85X3DQ0TYNXS6VDR197,19,4,8,1.0,1,0,11,1,0,1.0,asocial
01JVTRA85X3DQ0TYNXS6VDR197,19,5,8,1.0,1,0,36,4,0,1.0,asocial
01JVTRA85X3DQ0TYNXS6VDR197,19,6,8,1.0,2,0,17,4,0,1.0,asocial
01JVTRA85X3DQ0TYNXS6VDR197,19,7,8,1.0,1,1,11,3,0,1.0,asocial
01JVTRA85X3DQ0TYNXS6VDR197,19,8,8,1.0,0,0,9,0,0,1.0,asocial
01JVTRA85X3DQ0TYNXS6VDR197,19,9,8,1.0,8,0,18,0,0,1.0,asocial
01JVTRA85X3DQ0TYNXS6VDR197,20,0,8,1.0,1,0,20,1,8,1.0,asocial
01JVTRA85X3DQ0TYNXS6VDR197,20,1,8,1.0,1,0,6,0,8,1.0,asocial
01JVTRA85X3DQ0TYNXS6VDR197,20,2,8,1.0,1,0,17,1,8,1.0,asocial
01JVTRA85X3DQ0TYNXS6VDR197,20,3,8,1.0,1,0,21,1,8,1.0,asocial
01JVTRA85X3DQ0TYNXS6VDR197,20,4,8,1.0,1,0,11,1,8,1.0,asocial
01JVTRA85X3DQ0TYNXS6VDR197,20,5,8,1.0,1,0,37,5,8,1.0,asocial
01JVTRA85X3DQ0TYNXS6VDR197,20,6,8,1.0,2,0,18,4,8,1.0,asocial
01JVTRA85X3DQ0TYNXS6VDR197,20,7,8,1.0,1,1,11,3,8,1.0,asocial
01JVTRA85X3DQ0TYNXS6VDR197,20,8,8,1.0,1,0,11,0,8,1.0,asocial
01JVTRA85X3DQ0TYNXS6VDR197,20,9,8,1.0,8,0,18,1,8,1.0,asocial
01JVTRA85X3DQ0TYNXS6VDR197,21,0,7,1.0,1,0,21,1,8,1.0,asocial
01JVTRA85X3DQ0TYNXS6VDR197,21,1,7,1.0,1,0,7,0,8,1.0,asocial
01JVTRA85X3DQ0TYNXS6VDR197,21,2,7,1.0,1,0,17,1,8,1.0,asocial
01JVTRA85X3DQ0TYNXS6VDR197,21,3,7,1.0,1,0,23,1,8,1.0,asocial
01JVTRA85X3DQ0TYNXS6VDR197,21,4,7,1.0,1,0,12,1,8,1.0,asocial
01JVTRA85X3DQ0TYNXS6VDR197,21,5,7,1.0,1,0,39,5,8,1.0,asocial
01JVTRA85X3DQ0TYNXS6VDR197,21,6,7,1.0,2,0,19,4,8,1.0,asocial
01JVTRA85X3DQ0TYNXS6VDR197,21,7,7,1.0,1,1,11,3,8,1.0,asocial
01JVTRA85X3DQ0TYNXS6VDR197,21,8,7,1.0,2,0,13,0,8,1.0,asocial
01JVTRA85X3DQ0TYNXS6VDR197,21,9,7,1.0,8,0,18,1,8,1.0,asocial
01JVTRA85X3DQ0TYNXS6VDR197,22,0,2,0.0,1,0,22,1,7,1.0,asocial
01JVTRA85X3DQ0TYNXS6VDR197,22,1,2,0.0,1,0,8,0,7,1.0,asocial
01JVTRA85X3DQ0TYNXS6VDR197,22,2,2,0.0,1,0,17,1,7,1.0,asocial
01JVTRA85X3DQ0TYNXS6VDR197,22,3,2,0.0,1,0,25,1,7,1.0,asocial
01JVTRA85X3DQ0TYNXS6VDR197,22,4,2,0.0,1,0,12,1,7,1.0,asocial
01JVTRA85X3DQ0TYNXS6VDR197,22,5,2,0.0,1,0,40,7,7,1.0,asocial
01JVTRA85X3DQ0TYNXS6VDR197,22,6,2,0.0,2,0,20,4,7,1.0,asocial
01JVTRA85X3DQ0TYNXS6VDR197,22,7,2,0.0,2,1,12,3,7,1.0,asocial
01JVTRA85X3DQ0TYNXS6VDR197,22,8,2,0.0,2,0,14,0,7,1.0,asocial
01JVTRA85X3DQ0TYNXS6VDR197,22,9,2,0.0,8,0,18,1,7,1.0,asocial
01JVTRA85X3DQ0TYNXS6VDR197,23,0,4,1.0,1,0,23,1,2,0.0,asocial
01JVTRA85X3DQ0TYNXS6VDR197,23,1,4,1.0,1,0,9,0,2,0.0,asocial
01JVTRA85X3DQ0TYNXS6VDR197,23,2,4,1.0,1,1,17,2,2,0.0,asocial
01JVTRA85X3DQ0TYNXS6VDR197,23,3,4,1.0,1,0,27,1,2,0.0,asocial
01JVTRA85X3DQ0TYNXS6VDR197,23,4,4,1.0,1,0,12,1,2,0.0,asocial
01JVTRA85X3DQ0TYNXS6VDR197,23,5,4,1.0,1,0,42,7,2,0.0,asocial
01JVTRA85X3DQ0TYNXS6VDR197,23,6,4,1.0,2,0,21,4,2,0.0,asocial
01JVTRA85X3DQ0TYNXS6VDR197,23,7,4,1.0,2,1,12,3,2,0.0,asocial
01JVTRA85X3DQ0TYNXS6VDR197,23,8,4,1.0,2,0,15,0,2,0.0,asocial
01JVTRA85X3DQ0TYNXS6VDR197,23,9,4,1.0,8,0,19,1,2,0.0,asocial
01JVTRA85X3DQ0TYNXS6VDR197,24,0,0,1.0,1,0,24,1,4,1.0,asocial
01JVTRA85X3DQ0TYNXS6VDR197,24,1,0,1.0,1,0,9,1,4,1.0,asocial
01JVTRA85X3DQ0TYNXS6VDR197,24,2,0,1.0,1,1,18,2,4,1.0,asocial
01JVTRA85X3DQ0TYNXS6VDR197,24,3,0,1.0,1,0,29,1,4,1.0,asocial
01JVTRA85X3DQ0TYNXS6VDR197,24,4,0,1.0,2,0,13,1,4,1.0,asocial
01JVTRA85X3DQ0TYNXS6VDR197,24,5,0,1.0,1,0,43,8,4,1.0,asocial
01JVTRA85X3DQ0TYNXS6VDR197,24,6,0,1.0,2,0,21,5,4,1.0,asocial
01JVTRA85X3DQ0TYNXS6VDR197,24,7,0,1.0,2,1,12,3,4,1.0,asocial
01JVTRA85X3DQ0TYNXS6VDR197,24,8,0,1.0,2,0,16,0,4,1.0,asocial
01JVTRA85X3DQ0TYNXS6VDR197,24,9,0,1.0,8,0,19,1,4,1.0,asocial
01JVTRA85X3DQ0TYNXS6VDR197,25,0,4,1.0,2,0,28,1,0,1.0,asocial
01JVTRA85X3DQ0TYNXS6VDR197,25,1,4,1.0,1,0,9,1,0,1.0,asocial
01JVTRA85X3DQ0TYNXS6VDR197,25,2,4,1.0,1,1,18,2,0,1.0,asocial
01JVTRA85X3DQ0TYNXS6VDR197,25,3,4,1.0,1,0,31,1,0,1.0,asocial
01JVTRA85X3DQ0TYNXS6VDR197,25,4,4,1.0,2,0,13,1,0,1.0,asocial
01JVTRA85X3DQ0TYNXS6VDR197,25,5,4,1.0,1,0,45,8,0,1.0,asocial
01JVTRA85X3DQ0TYNXS6VDR197,25,6,4,1.0,2,0,22,5,0,1.0,asocial
01JVTRA85X3DQ0TYNXS6VDR197,25,7,4,1.0,2,1,12,3,0,1.0,asocial
01JVTRA85X3DQ0TYNXS6VDR197,25,8,4,1.0,2,0,16,1,0,1.0,asocial
01JVTRA85X3DQ0TYNXS6VDR197,25,9,4,1.0,8,0,19,1,0,1.0,asocial
01JVTRA85X3DQ0TYNXS6VDR197,26,0,3,0.0,2,0,29,1,4,1.0,asocial
01JVTRA85X3DQ0TYNXS6VDR197,26,1,3,0.0,1,0,11,1,4,1.0,asocial
01JVTRA85X3DQ0TYNXS6VDR197,26,2,3,0.0,1,1,19,2,4,1.0,asocial
01JVTRA85X3DQ0TYNXS6VDR197,26,3,3,0.0,1,0,33,1,4,1.0,asocial
01JVTRA85X3DQ0TYNXS6VDR197,26,4,3,0.0,3,0,14,1,4,1.0,asocial
01JVTRA85X3DQ0TYNXS6VDR197,26,5,3,0.0,1,0,45,8,4,1.0,asocial
01JVTRA85X3DQ0TYNXS6VDR197,26,6,3,0.0,2,0,23,5,4,1.0,asocial
01JVTRA85X3DQ0TYNXS6VDR197,26,7,3,0.0,2,1,12,4,4,1.0,asocial
01JVTRA85X3DQ0TYNXS6VDR197,26,8,3,0.0,2,0,16,1,4,1.0,asocial
01JVTRA85X3DQ0TYNXS6VDR197,26,9,3,0.0,8,0,20,1,4,1.0,asocial
01JVTRA85X3DQ0TYNXS6VDR197,27,0,2,1.0,2,0,31,1,3,0.0,asocial
01JVTRA85X3DQ0TYNXS6VDR197,27,1,2,1.0,1,0,11,1,3,0.0,asocial
01JVTRA85X3DQ0TYNXS6VDR197,27,2,2,1.0,1,1,19,3,3,0.0,asocial
01JVTRA85X3DQ0TYNXS6VDR197,27,3,2,1.0,1,1,35,2,3,0.0,asocial
01JVTRA85X3DQ0TYNXS6VDR197,27,4,2,1.0,3,0,14,1,3,0.0,asocial
01JVTRA85X3DQ0TYNXS6VDR197,27,5,2,1.0,1,0,46,8,3,0.0,asocial
01JVTRA85X3DQ0TYNXS6VDR197,27,6,2,1.0,2,0,25,5,3,0.0,asocial
01JVTRA85X3DQ0TYNXS6VDR197,27,7,2,1.0,2,1,12,4,3,0.0,asocial
01JVTRA85X3DQ0TYNXS6VDR197,27,8,2,1.0,2,0,17,1,3,0.0,asocial
01JVTRA85X3DQ0TYNXS6VDR197,27,9,2,1.0,8,0,20,1,3,0.0,asocial
01JVTRA85X3DQ0TYNXS6VDR197,28,0,3,1.0,2,0,32,2,2,1.0,asocial
01JVTRA85X3DQ0TYNXS6VDR197,28,1,3,1.0,1,0,11,1,2,1.0,asocial
01JVTRA85X3DQ0TYNXS6VDR197,28,2,3,1.0,2,1,20,3,2,1.0,asocial
01JVTRA85X3DQ0TYNXS6VDR197,28,3,3,1.0,1,1,37,2,2,1.0,asocial
01JVTRA85X3DQ0TYNXS6VDR197,28,4,3,1.0,3,0,15,1,2,1.0,asocial
01JVTRA85X3DQ0TYNXS6VDR197,28,5,3,1.0,1,0,47,8,2,1.0,asocial
01JVTRA85X3DQ0TYNXS6VDR197,28,6,3,1.0,2,0,27,5,2,1.0,asocial
01JVTRA85X3DQ0TYNXS6VDR197,28,7,3,1.0,2,1,12,4,2,1.0,asocial
01JVTRA85X3DQ0TYNXS6VDR197,28,8,3,1.0,2,0,17,1,2,1.0,asocial
01JVTRA85X3DQ0TYNXS6VDR197,28,9,3,1.0,8,0,20,1,2,1.0,asocial
01JVTRA85X3DQ0TYNXS6VDR197,29,0,9,1.0,2,0,33,2,3,1.0,asocial
01JVTRA85X3DQ0TYNXS6VDR197,29,1,9,1.0,1,0,12,1,3,1.0,asocial
01JVTRA85X3DQ0TYNXS6VDR197,29,2,9,1.0,2,1,21,3,3,1.0,asocial
01JVTRA85X3DQ0TYNXS6VDR197,29,3,9,1.0,2,1,39,3,3,1.0,asocial
01JVTRA85X3DQ0TYNXS6VDR197,29,4,9,1.0,3,0,15,1,3,1.0,asocial
01JVTRA85X3DQ0TYNXS6VDR197,29,5,9,1.0,1,0,47,8,3,1.0,asocial
01JVTRA85X3DQ0TYNXS6VDR197,29,6,9,1.0,2,0,29,5,3,1.0,asocial
01JVTRA85X3DQ0TYNXS6VDR197,29,7,9,1.0,2,1,14,4,3,1.0,asocial
01JVTRA85X3DQ0TYNXS6VDR197,29,8,9,1.0,2,0,17,1,3,1.0,asocial
01JVTRA85X3DQ0TYNXS6VDR197,29,9,9,1.0,8,0,20,1,3,1.0,asocial
01JVTRA85X3DQ0TYNXS6VDR197,30,0,4,1.0,2,0,33,3,9,1.0,asocial
01JVTRA85X3DQ0TYNXS6VDR197,30,1,4,1.0,1,0,13,1,9,1.0,asocial
01JVTRA85X3DQ0TYNXS6VDR197,30,2,4,1.0,2,1,23,3,9,1.0,asocial
01JVTRA85X3DQ0TYNXS6VDR197,30,3,4,1.0,2,1,40,4,9,1.0,asocial
01JVTRA85X3DQ0TYNXS6VDR197,30,4,4,1.0,3,0,15,1,9,1.0,asocial
01JVTRA85X3DQ0TYNXS6VDR197,30,5,4,1.0,1,0,47,8,9,1.0,asocial
01JVTRA85X3DQ0TYNXS6VDR197,30,6,4,1.0,2,0,30,5,9,1.0,asocial
01JVTRA85X3DQ0TYNXS6VDR197,30,7,4,1.0,2,1,14,4,9,1.0,asocial
01JVTRA85X3DQ0TYNXS6VDR197,30,8,4,1.0,2,0,18,1,9,1.0,asocial
01JVTRA85X3DQ0TYNXS6VDR197,30,9,4,1.0,9,0,22,1,9,1.0,asocial
01JVTRA85X3DQ0TYNXS6VDR197,31,0,9,1.0,2,0,34,3,4,1.0,asocial
01JVTRA85X3DQ0TYNXS6VDR197,31,1,9,1.0,1,0,14,1,4,1.0,asocial
01JVTRA85X3DQ0TYNXS6VDR197,31,2,9,1.0,2,1,23,5,4,1.0,asocial
01JVTRA85X3DQ0TYNXS6VDR197,31,3,9,1.0,2,1,41,4,4,1.0,asocial
01JVTRA85X3DQ0TYNXS6VDR197,31,4,9,1.0,4,0,16,1,4,1.0,asocial
01JVTRA85X3DQ0TYNXS6VDR197,31,5,9,1.0,1,0,48,8,4,1.0,asocial
01JVTRA85X3DQ0TYNXS6VDR197,31,6,9,1.0,2,0,32,5,4,1.0,asocial
01JVTRA85X3DQ0TYNXS6VDR197,31,7,9,1.0,2,1,14,4,4,1.0,asocial
01JVTRA85X3DQ0TYNXS6VDR197,31,8,9,1.0,2,0,19,1,4,1.0,asocial
01JVTRA85X3DQ0TYNXS6VDR197,31,9,9,1.0,9,0,22,1,4,1.0,asocial
01JVTRA85X3DQ0TYNXS6VDR197,32,0,4,1.0,2,0,35,3,9,1.0,asocial
01JVTRA85X3DQ0TYNXS6VDR197,32,1,4,1.0,1,0,16,1,9,1.0,asocial
01JVTRA85X3DQ0TYNXS6VDR197,32,2,4,1.0,2,1,24,5,9,1.0,asocial
01JVTRA85X3DQ0TYNXS6VDR197,32,3,4,1.0,2,1,43,4,9,1.0,asocial
01JVTRA85X3DQ0TYNXS6VDR197,32,4,4,1.0,4,0,16,1,9,1.0,asocial
01JVTRA85X3DQ0TYNXS6VDR197,32,5,4,1.0,1,0,49,8,9,1.0,asocial
01JVTRA85X3DQ0TYNXS6VDR197,32,6,4,1.0,2,0,33,5,9,1.0,asocial
01JVTRA85X3DQ0TYNXS6VDR197,32,7,4,1.0,2,1,14,4,9,1.0,asocial
01JVTRA85X3DQ0TYNXS6VDR197,32,8,4,1.0,2,0,20,1,9,1.0,asocial
01JVTRA85X3DQ0TYNXS6VDR197,32,9,4,1.0,10,0,23,1,9,1.0,asocial
01JVTRA85X3DQ0TYNXS6VDR197,33,0,8,1.0,2,0,36,3,4,1.0,asocial
01JVTRA85X3DQ0TYNXS6VDR197,33,1,8,1.0,1,0,17,2,4,1.0,asocial
01JVTRA85X3DQ0TYNXS6VDR197,33,2,8,1.0,2,1,24,5,4,1.0,asocial
01JVTRA85X3DQ0TYNXS6VDR197,33,3,8,1.0,2,1,44,4,4,1.0,asocial
01JVTRA85X3DQ0TYNXS6VDR197,33,4,8,1.0,5,0,17,1,4,1.0,asocial
01JVTRA85X3DQ0TYNXS6VDR197,33,5,8,1.0,1,0,50,9,4,1.0,asocial
01JVTRA85X3DQ0TYNXS6VDR197,33,6,8,1.0,2,0,34,5,4,1.0,asocial
01JVTRA85X3DQ0TYNXS6VDR197,33,7,8,1.0,2,1,14,4,4,1.0,asocial
01JVTRA85X3DQ0TYNXS6VDR197,33,8,8,1.0,2,0,21,1,4,1.0,asocial
01JVTRA85X3DQ0TYNXS6VDR197,33,9,8,1.0,10,0,24,1,4,1.0,asocial
01JVTRA85X3DQ0TYNXS6VDR197,34,0,6,1.0,2,0,37,3,8,1.0,asocial
01JVTRA85X3DQ0TYNXS6VDR197,34,1,6,1.0,1,0,19,2,8,1.0,asocial
01JVTRA85X3DQ0TYNXS6VDR197,34,2,6,1.0,2,1,24,5,8,1.0,asocial
01JVTRA85X3DQ0TYNXS6VDR197,34,3,6,1.0,2,1,45,4,8,1.0,asocial
01JVTRA85X3DQ0TYNXS6VDR197,34,4,6,1.0,5,0,18,1,8,1.0,asocial
01JVTRA85X3DQ0TYNXS6VDR197,34,5,6,1.0,1,0,50,9,8,1.0,asocial
01JVTRA85X3DQ0TYNXS6VDR197,34,6,6,1.0,2,0,35,5,8,1.0,asocial
01JVTRA85X3DQ0TYNXS6VDR197,34,7,6,1.0,2,1,15,4,8,1.0,asocial
01JVTRA85X3DQ0TYNXS6VDR197,34,8,6,1.0,3,0,23,1,8,1.0,asocial
01JVTRA85X3DQ0TYNXS6VDR197,34,9,6,1.0,10,0,25,1,8,1.0,asocial
01JVTRA85X3DQ0TYNXS6VDR197,35,0,3,1.0,2,0,38,3,6,1.0,asocial
01JVTRA85X3DQ0TYNXS6VDR197,35,1,3,1.0,1,0,21,2,6,1.0,asocial
01JVTRA85X3DQ0TYNXS6VDR197,35,2,3,1.0,2,1,24,5,6,1.0,asocial
01JVTRA85X3DQ0TYNXS6VDR197,35,3,3,1.0,2,1,47,4,6,1.0,asocial
01JVTRA85X3DQ0TYNXS6VDR197,35,4,3,1.0,5,0,18,2,6,1.0,asocial
01JVTRA85X3DQ0TYNXS6VDR197,35,5,3,1.0,1,0,51,9,6,1.0,asocial
01JVTRA85X3DQ0TYNXS6VDR197,35,6,3,1.0,3,0,37,5,6,1.0,asocial
01JVTRA85X3DQ0TYNXS6VDR197,35,7,3,1.0,2,1,15,4,6,1.0,asocial
01JVTRA85X3DQ0TYNXS6VDR197,35,8,3,1.0,3,0,24,1,6,1.0,asocial
01JVTRA85X3DQ0TYNXS6VDR197,35,9,3,1.0,10,0,25,1,6,1.0,asocial
01JVTRA85X3DQ0TYNXS6VDR197,36,0,4,1.0,2,0,39,3,3,1.0,asocial
01JVTRA85X3DQ0TYNXS6VDR197,36,1,4,1.0,1,0,23,2,3,1.0,asocial
01JVTRA85X3DQ0TYNXS6VDR197,36,2,4,1.0,2,1,24,5,3,1.0,asocial
01JVTRA85X3DQ0TYNXS6VDR197,36,3,4,1.0,3,1,51,4,3,1.0,asocial
01JVTRA85X3DQ0TYNXS6VDR197,36,4,4,1.0,5,0,18,2,3,1.0,asocial
01JVTRA85X3DQ0TYNXS6VDR197,36,5,4,1.0,1,0,52,9,3,1.0,asocial
01JVTRA85X3DQ0TYNXS6VDR197,36,6,4,1.0,3,0,38,5,3,1.0,asocial
01JVTRA85X3DQ0TYNXS6VDR197,36,7,4,1.0,2,1,15,4,3,1.0,asocial
01JVTRA85X3DQ0TYNXS6VDR197,36,8,4,1.0,3,0,25,1,3,1.0,asocial
01JVTRA85X3DQ0TYNXS6VDR197,36,9,4,1.0,10,0,25,1,3,1.0,asocial
01JVTRA85X3DQ0TYNXS6VDR197,37,0,9,1.0,2,0,40,3,4,1.0,asocial
01JVTRA85X3DQ0TYNXS6VDR197,37,1,9,1.0,1,0,25,2,4,1.0,asocial
01JVTRA85X3DQ0TYNXS6VDR197,37,2,9,1.0,2,1,24,5,4,1.0,asocial
01JVTRA85X3DQ0TYNXS6VDR197,37,3,9,1.0,3,1,54,4,4,1.0,asocial
01JVTRA85X3DQ0TYNXS6VDR197,37,4,9,1.0,6,0,19,2,4,1.0,asocial
01JVTRA85X3DQ0TYNXS6VDR197,37,5,9,1.0,1,0,53,9,4,1.0,asocial
01JVTRA85X3DQ0TYNXS6VDR197,37,6,9,1.0,3,0,39,5,4,1.0,asocial
01JVTRA85X3DQ0TYNXS6VDR197,37,7,9,1.0,2,1,15,4,4,1.0,asocial
01JVTRA85X3DQ0TYNXS6VDR197,37,8,9,1.0,3,0,26,1,4,1.0,asocial
01JVTRA85X3DQ0TYNXS6VDR197,37,9,9,1.0,10,0,25,1,4,1.0,asocial
01JVTRA85X3DQ0TYNXS6VDR197,38,0,8,1.0,2,0,41,3,9,1.0,asocial
01JVTRA85X3DQ0TYNXS6VDR197,38,1,8,1.0,1,0,27,2,9,1.0,asocial
01JVTRA85X3DQ0TYNXS6VDR197,38,2,8,1.0,2,1,24,5,9,1.0,asocial
01JVTRA85X3DQ0TYNXS6VDR197,38,3,8,1.0,3,1,57,4,9,1.0,asocial
01JVTRA85X3DQ0TYNXS6VDR197,38,4,8,1.0,6,0,19,2,9,1.0,asocial
01JVTRA85X3DQ0TYNXS6VDR197,38,5,8,1.0,1,0,53,9,9,1.0,asocial
01JVTRA85X3DQ0TYNXS6VDR197,38,6,8,1.0,3,0,40,5,9,1.0,asocial
01JVTRA85X3DQ0TYNXS6VDR197,38,7,8,1.0,2,1,15,4,9,1.0,asocial
01JVTRA85X3DQ0TYNXS6VDR197,38,8,8,1.0,3,0,26,2,9,1.0,asocial
01JVTRA85X3DQ0TYNXS6VDR197,38,9,8,1.0,11,0,27,1,9,1.0,asocial
01JVTRA85X3DQ0TYNXS6VDR197,39,0,9,1.0,2,0,42,3,8,1.0,asocial
01JVTRA85X3DQ0TYNXS6VDR197,39,1,9,1.0,1,0,28,2,8,1.0,asocial
01JVTRA85X3DQ0TYNXS6VDR197,39,2,9,1.0,2,1,24,5,8,1.0,asocial
01JVTRA85X3DQ0TYNXS6VDR197,39,3,9,1.0,3,1,60,4,8,1.0,asocial
01JVTRA85X3DQ0TYNXS6VDR197,39,4,9,1.0,6,0,20,2,8,1.0,asocial
01JVTRA85X3DQ0TYNXS6VDR197,39,5,9,1.0,1,0,54,9,8,1.0,asocial
01JVTRA85X3DQ0TYNXS6VDR197,39,6,9,1.0,3,0,41,5,8,1.0,asocial
01JVTRA85X3DQ0TYNXS6VDR197,39,7,9,1.0,2,1,15,4,8,1.0,asocial
01JVTRA85X3DQ0TYNXS6VDR197,39,8,9,1.0,4,0,27,2,8,1.0,asocial
01JVTRA85X3DQ0TYNXS6VDR197,39,9,9,1.0,11,0,28,1,8,1.0,asocial
01JVTRA85X3DQ0TYNXS6VDR197,40,0,9,1.0,2,0,43,3,9,1.0,asocial
01JVTRA85X3DQ0TYNXS6VDR197,40,1,9,1.0,1,0,29,2,9,1.0,asocial
01JVTRA85X3DQ0TYNXS6VDR197,40,2,9,1.0,2,1,24,5,9,1.0,asocial
01JVTRA85X3DQ0TYNXS6VDR197,40,3,9,1.0,3,1,63,4,9,1.0,asocial
01JVTRA85X3DQ0TYNXS6VDR197,40,4,9,1.0,6,0,21,2,9,1.0,asocial
01JVTRA85X3DQ0TYNXS6VDR197,40,5,9,1.0,1,0,55,9,9,1.0,asocial
01JVTRA85X3DQ0TYNXS6VDR197,40,6,9,1.0,3,0,42,5,9,1.0,asocial
01JVTRA85X3DQ0TYNXS6VDR197,40,7,9,1.0,2,1,15,4,9,1.0,asocial
01JVTRA85X3DQ0TYNXS6VDR197,40,8,9,1.0,4,0,27,2,9,1.0,asocial
01JVTRA85X3DQ0TYNXS6VDR197,40,9,9,1.0,12,0,29,2,9,1.0,asocial
01JVTRA85X3DQ0TYNXS6VDR197,41,0,9,1.0,2,0,44,3,9,1.0,asocial
01JVTRA85X3DQ0TYNXS6VDR197,41,1,9,1.0,1,0,30,2,9,1.0,asocial
01JVTRA85X3DQ0TYNXS6VDR197,41,2,9,1.0,2,1,24,5,9,1.0,asocial
01JVTRA85X3DQ0TYNXS6VDR197,41,3,9,1.0,3,1,66,4,9,1.0,asocial
01JVTRA85X3DQ0TYNXS6VDR197,41,4,9,1.0,6,0,22,2,9,1.0,asocial
01JVTRA85X3DQ0TYNXS6VDR197,41,5,9,1.0,1,0,56,9,9,1.0,asocial
01JVTRA85X3DQ0TYNXS6VDR197,41,6,9,1.0,3,0,43,5,9,1.0,asocial
01JVTRA85X3DQ0TYNXS6VDR197,41,7,9,1.0,2,1,15,4,9,1.0,asocial
01JVTRA85X3DQ0TYNXS6VDR197,41,8,9,1.0,4,0,28,2,9,1.0,asocial
01JVTRA85X3DQ0TYNXS6VDR197,41,9,9,1.0,13,0,30,2,9,1.0,asocial
01JVTRA85X3DQ0TYNXS6VDR197,42,0,9,1.0,2,0,45,3,9,1.0,asocial
01JVTRA85X3DQ0TYNXS6VDR197,42,1,9,1.0,1,0,31,2,9,1.0,asocial
01JVTRA85X3DQ0TYNXS6VDR197,42,2,9,1.0,2,1,24,5,9,1.0,asocial
01JVTRA85X3DQ0TYNXS6VDR197,42,3,9,1.0,3,1,69,4,9,1.0,asocial
01JVTRA85X3DQ0TYNXS6VDR197,42,4,9,1.0,6,0,23,2,9,1.0,asocial
01JVTRA85X3DQ0TYNXS6VDR197,42,5,9,1.0,1,0,56,9,9,1.0,asocial
01JVTRA85X3DQ0TYNXS6VDR197,42,6,9,1.0,3,0,44,5,9,1.0,asocial
01JVTRA85X3DQ0TYNXS6VDR197,42,7,9,1.0,2,1,16,4,9,1.0,asocial
01JVTRA85X3DQ0TYNXS6VDR197,42,8,9,1.0,4,0,29,2,9,1.0,asocial
01JVTRA85X3DQ0TYNXS6VDR197,42,9,9,1.0,14,0,31,2,9,1.0,asocial
01JVTRA85X3DQ0TYNXS6VDR197,43,0,9,1.0,2,0,46,3,9,1.0,asocial
01JVTRA85X3DQ0TYNXS6VDR197,43,1,9,1.0,1,0,32,2,9,1.0,asocial
01JVTRA85X3DQ0TYNXS6VDR197,43,2,9,1.0,2,1,24,5,9,1.0,asocial
01JVTRA85X3DQ0TYNXS6VDR197,43,3,9,1.0,3,1,72,4,9,1.0,asocial
01JVTRA85X3DQ0TYNXS6VDR197,43,4,9,1.0,6,0,24,2,9,1.0,asocial
01JVTRA85X3DQ0TYNXS6VDR197,43,5,9,1.0,1,0,56,9,9,1.0,asocial
01JVTRA85X3DQ0TYNXS6VDR197,43,6,9,1.0,3,0,45,5,9,1.0,asocial
01JVTRA85X3DQ0TYNXS6VDR197,43,7,9,1.0,2,1,16,4,9,1.0,asocial
01JVTRA85X3DQ0TYNXS6VDR197,43,8,9,1.0,4,0,30,2,9,1.0,asocial
01JVTRA85X3DQ0TYNXS6VDR197,43,9,9,1.0,15,0,33,2,9,1.0,asocial
01JVTRA85X3DQ0TYNXS6VDR197,44,0,9,1.0,2,0,47,3,9,1.0,asocial
01JVTRA85X3DQ0TYNXS6VDR197,44,1,9,1.0,1,0,33,2,9,1.0,asocial
01JVTRA85X3DQ0TYNXS6VDR197,44,2,9,1.0,2,1,24,5,9,1.0,asocial
01JVTRA85X3DQ0TYNXS6VDR197,44,3,9,1.0,3,1,73,5,9,1.0,asocial
01JVTRA85X3DQ0TYNXS6VDR197,44,4,9,1.0,6,0,25,2,9,1.0,asocial
01JVTRA85X3DQ0TYNXS6VDR197,44,5,9,1.0,1,0,58,9,9,1.0,asocial
01JVTRA85X3DQ0TYNXS6VDR197,44,6,9,1.0,3,0,46,5,9,1.0,asocial
01JVTRA85X3DQ0TYNXS6VDR197,44,7,9,1.0,2,1,16,4,9,1.0,asocial
01JVTRA85X3DQ0TYNXS6VDR197,44,8,9,1.0,4,0,31,2,9,1.0,asocial
01JVTRA85X3DQ0TYNXS6VDR197,44,9,9,1.0,16,0,34,2,9,1.0,asocial
01JVTRA85X3DQ0TYNXS6VDR197,45,0,4,1.0,2,0,48,3,9,1.0,asocial
01JVTRA85X3DQ0TYNXS6VDR197,45,1,4,1.0,1,0,34,2,9,1.0,asocial
01JVTRA85X3DQ0TYNXS6VDR197,45,2,4,1.0,2,1,24,5,9,1.0,asocial
01JVTRA85X3DQ0TYNXS6VDR197,45,3,4,1.0,3,1,76,5,9,1.0,asocial
01JVTRA85X3DQ0TYNXS6VDR197,45,4,4,1.0,6,0,25,3,9,1.0,asocial
01JVTRA85X3DQ0TYNXS6VDR197,45,5,4,1.0,1,0,58,9,9,1.0,asocial
01JVTRA85X3DQ0TYNXS6VDR197,45,6,4,1.0,3,0,47,5,9,1.0,asocial
01JVTRA85X3DQ0TYNXS6VDR197,45,7,4,1.0,2,1,16,4,9,1.0,asocial
01JVTRA85X3DQ0TYNXS6VDR197,45,8,4,1.0,4,0,31,3,9,1.0,asocial
01JVTRA85X3DQ0TYNXS6VDR197,45,9,4,1.0,17,0,36,2,9,1.0,asocial
01JVTRA85X3DQ0TYNXS6VDR197,46,0,4,1.0,2,0,49,3,4,1.0,asocial
01JVTRA85X3DQ0TYNXS6VDR197,46,1,4,1.0,1,0,35,2,4,1.0,asocial
01JVTRA85X3DQ0TYNXS6VDR197,46,2,4,1.0,2,1,24,5,4,1.0,asocial
01JVTRA85X3DQ0TYNXS6VDR197,46,3,4,1.0,3,1,80,5,4,1.0,asocial
01JVTRA85X3DQ0TYNXS6VDR197,46,4,4,1.0,7,0,26,3,4,1.0,asocial
01JVTRA85X3DQ0TYNXS6VDR197,46,5,4,1.0,1,0,58,9,4,1.0,asocial
01JVTRA85X3DQ0TYNXS6VDR197,46,6,4,1.0,3,0,49,5,4,1.0,asocial
01JVTRA85X3DQ0TYNXS6VDR197,46,7,4,1.0,2,1,16,4,4,1.0,asocial
01JVTRA85X3DQ0TYNXS6VDR197,46,8,4,1.0,4,0,31,3,4,1.0,asocial
01JVTRA85X3DQ0TYNXS6VDR197,46,9,4,1.0,17,0,37,2,4,1.0,asocial
01JVTRA85X3DQ0TYNXS6VDR197,47,0,4,1.0,2,0,50,3,4,1.0,asocial
01JVTRA85X3DQ0TYNXS6VDR197,47,1,4,1.0,1,0,36,2,4,1.0,asocial
01JVTRA85X3DQ0TYNXS6VDR197,47,2,4,1.0,2,1,24,5,4,1.0,asocial
01JVTRA85X3DQ0TYNXS6VDR197,47,3,4,1.0,3,1,83,6,4,1.0,asocial
01JVTRA85X3DQ0TYNXS6VDR197,47,4,4,1.0,8,0,27,3,4,1.0,asocial
01JVTRA85X3DQ0TYNXS6VDR197,47,5,4,1.0,1,0,58,9,4,1.0,asocial
01JVTRA85X3DQ0TYNXS6VDR197,47,6,4,1.0,3,0,51,5,4,1.0,asocial
01JVTRA85X3DQ0TYNXS6VDR197,47,7,4,1.0,2,1,16,4,4,1.0,asocial
01JVTRA85X3DQ0TYNXS6VDR197,47,8,4,1.0,4,0,31,3,4,1.0,asocial
01JVTRA85X3DQ0TYNXS6VDR197,47,9,4,1.0,17,0,38,2,4,1.0,asocial
01JVTRA85X3DQ0TYNXS6VDR197,48,0,9,0.0,2,0,51,3,4,1.0,asocial
01JVTRA85X3DQ0TYNXS6VDR197,48,1,9,0.0,1,0,37,2,4,1.0,asocial
01JVTRA85X3DQ0TYNXS6VDR197,48,2,9,0.0,2,1,24,5,4,1.0,asocial
01JVTRA85X3DQ0TYNXS6VDR197,48,3,9,0.0,3,1,86,6,4,1.0,asocial
01JVTRA85X3DQ0TYNXS6VDR197,48,4,9,0.0,9,0,28,3,4,1.0,asocial
01JVTRA85X3DQ0TYNXS6VDR197,48,5,9,0.0,1,0,58,9,4,1.0,asocial
01JVTRA85X3DQ0TYNXS6VDR197,48,6,9,0.0,3,0,53,5,4,1.0,asocial
01JVTRA85X3DQ0TYNXS6VDR197,48,7,9,0.0,2,1,16,4,4,1.0,asocial
01JVTRA85X3DQ0TYNXS6VDR197,48,8,9,0.0,4,0,31,3,4,1.0,asocial
01JVTRA85X3DQ0TYNXS6VDR197,48,9,9,0.0,17,0,40,2,4,1.0,asocial
01JVTRA85X3DQ0TYNXS6VDR197,49,0,4,0.0,2,0,52,3,9,0.0,asocial
01JVTRA85X3DQ0TYNXS6VDR197,49,1,4,0.0,1,0,38,2,9,0.0,asocial
01JVTRA85X3DQ0TYNXS6VDR197,49,2,4,0.0,2,1,24,5,9,0.0,asocial
01JVTRA85X3DQ0TYNXS6VDR197,49,3,4,0.0,3,1,89,6,9,0.0,asocial
01JVTRA85X3DQ0TYNXS6VDR197,49,4,4,0.0,9,0,28,3,9,0.0,asocial
01JVTRA85X3DQ0TYNXS6VDR197,49,5,4,0.0,1,0,58,9,9,0.0,asocial
01JVTRA85X3DQ0TYNXS6VDR197,49,6,4,0.0,3,0,55,5,9,0.0,asocial
01JVTRA85X3DQ0TYNXS6VDR197,49,7,4,0.0,2,1,16,4,9,0.0,asocial
01JVTRA85X3DQ0TYNXS6VDR197,49,8,4,0.0,4,0,31,3,9,0.0,asocial
01JVTRA85X3DQ0TYNXS6VDR197,49,9,4,0.0,17,1,42,3,9,0.0,asocial
01JVTRA85X3DQ0TYNXS6VDR197,50,0,8,1.0,2,0,53,3,4,0.0,asocial
01JVTRA85X3DQ0TYNXS6VDR197,50,1,8,1.0,1,0,39,2,4,0.0,asocial
01JVTRA85X3DQ0TYNXS6VDR197,50,2,8,1.0,2,1,24,5,4,0.0,asocial
01JVTRA85X3DQ0TYNXS6VDR197,50,3,8,1.0,3,1,92,6,4,0.0,asocial
01JVTRA85X3DQ0TYNXS6VDR197,50,4,8,1.0,9,1,28,4,4,0.0,asocial
01JVTRA85X3DQ0TYNXS6VDR197,50,5,8,1.0,1,0,59,9,4,0.0,asocial
01JVTRA85X3DQ0TYNXS6VDR197,50,6,8,1.0,3,0,57,5,4,0.0,asocial
01JVTRA85X3DQ0TYNXS6VDR197,50,7,8,1.0,2,1,16,4,4,0.0,asocial
01JVTRA85X3DQ0TYNXS6VDR197,50,8,8,1.0,4,0,31,3,4,0.0,asocial
01JVTRA85X3DQ0TYNXS6VDR197,50,9,8,1.0,17,1,43,3,4,0.0,asocial
01JVTRA85X3DQ0TYNXS6VDR197,51,0,8,1.0,2,0,54,3,8,1.0,asocial
01JVTRA85X3DQ0TYNXS6VDR197,51,1,8,1.0,1,0,40,2,8,1.0,asocial
01JVTRA85X3DQ0TYNXS6VDR197,51,2,8,1.0,2,1,24,5,8,1.0,asocial
01JVTRA85X3DQ0TYNXS6VDR197,51,3,8,1.0,3,1,95,6,8,1.0,asocial
01JVTRA85X3DQ0TYNXS6VDR197,51,4,8,1.0,9,1,28,4,8,1.0,asocial
01JVTRA85X3DQ0TYNXS6VDR197,51,5,8,1.0,1,0,60,9,8,1.0,asocial
01JVTRA85X3DQ0TYNXS6VDR197,51,6,8,1.0,3,0,59,5,8,1.0,asocial
01JVTRA85X3DQ0TYNXS6VDR197,51,7,8,1.0,2,1,16,4,8,1.0,asocial
01JVTRA85X3DQ0TYNXS6VDR197,51,8,8,1.0,5,0,32,3,8,1.0,asocial
01JVTRA85X3DQ0TYNXS6VDR197,51,9,8,1.0,17,1,44,3,8,1.0,asocial
01JVTRAF0HXMZCY9NBDR1R33B5,1,0,8,1.0,0,0,0,0,-1,,asocial
01JVTRAF0HXMZCY9NBDR1R33B5,1,1,8,1.0,0,0,0,0,-1,,asocial
01JVTRAF0HXMZCY9NBDR1R33B5,1,2,8,1.0,0,0,0,0,-1,,asocial
01JVTRAF0HXMZCY9NBDR1R33B5,1,3,8,1.0,0,0,0,0,-1,,asocial
01JVTRAF0HXMZCY9NBDR1R33B5,1,4,8,1.0,0,0,0,0,-1,,asocial
01JVTRAF0HXMZCY9NBDR1R33B5,1,5,8,1.0,0,0,0,0,-1,,asocial
01JVTRAF0HXMZCY9NBDR1R33B5,1,6,8,1.0,0,0,0,0,-1,,asocial
01JVTRAF0HXMZCY9NBDR1R33B5,1,7,8,1.0,0,0,0,0,-1,,asocial
01JVTRAF0HXMZCY9NBDR1R33B5,1,8,8,1.0,0,0,0,0,-1,,asocial
01JVTRAF0HXMZCY9NBDR1R33B5,1,9,8,1.0,0,0,0,0,-1,,asocial
01JVTRAF0HXMZCY9NBDR1R33B5,2,0,5,1.0,0,0,1,0,8,1.0,asocial
01JVTRAF0HXMZCY9NBDR1R33B5,2,1,5,1.0,0,0,1,0,8,1.0,asocial
01JVTRAF0HXMZCY9NBDR1R33B5,2,2,5,1.0,0,0,1,0,8,1.0,asocial
01JVTRAF0HXMZCY9NBDR1R33B5,2,3,5,1.0,0,0,1,0,8,1.0,asocial
01JVTRAF0HXMZCY9NBDR1R33B5,2,4,5,1.0,0,0,1,0,8,1.0,asocial
01JVTRAF0HXMZCY9NBDR1R33B5,2,5,5,1.0,0,0,1,0,8,1.0,asocial
01JVTRAF0HXMZCY9NBDR1R33B5,2,6,5,1.0,0,0,1,0,8,1.0,asocial
01JVTRAF0HXMZCY9NBDR1R33B5,2,7,5,1.0,0,0,1,0,8,1.0,asocial
01JVTRAF0HXMZCY9NBDR1R33B5,2,8,5,1.0,1,0,1,0,8,1.0,asocial
01JVTRAF0HXMZCY9NBDR1R33B5,2,9,5,1.0,0,0,1,0,8,1.0,asocial
01JVTRAF0HXMZCY9NBDR1R33B5,3,0,2,1.0,0,0,2,0,5,1.0,asocial
01JVTRAF0HXMZCY9NBDR1R33B5,3,1,2,1.0,0,0,1,0,5,1.0,asocial
01JVTRAF0HXMZCY9NBDR1R33B5,3,2,2,1.0,0,0,2,0,5,1.0,asocial
01JVTRAF0HXMZCY9NBDR1R33B5,3,3,2,1.0,0,0,2,0,5,1.0,asocial
01JVTRAF0HXMZCY9NBDR1R33B5,3,4,2,1.0,0,0,2,0,5,1.0,asocial
01JVTRAF0HXMZCY9NBDR1R33B5,3,5,2,1.0,1,0,4,0,5,1.0,asocial
01JVTRAF0HXMZCY9NBDR1R33B5,3,6,2,1.0,0,0,2,0,5,1.0,asocial
01JVTRAF0HXMZCY9NBDR1R33B5,3,7,2,1.0,0,0,1,0,5,1.0,asocial
01JVTRAF0HXMZCY9NBDR1R33B5,3,8,2,1.0,1,0,2,0,5,1.0,asocial
01JVTRAF0HXMZCY9NBDR1R33B5,3,9,2,1.0,0,0,2,0,5,1.0,asocial
01JVTRAF0HXMZCY9NBDR1R33B5,4,0,5,1.0,0,0,3,0,2,1.0,asocial
01JVTRAF0HXMZCY9NBDR1R33B5,4,1,5,1.0,0,0,1,0,2,1.0,asocial
01JVTRAF0HXMZCY9NBDR1R33B5,4,2,5,1.0,1,0,4,0,2,1.0,asocial
01JVTRAF0HXMZCY9NBDR1R33B5,4,3,5,1.0,0,0,3,0,2,1.0,asocial
01JVTRAF0HXMZCY9NBDR1R33B5,4,4,5,1.0,0,0,3,0,2,1.0,asocial
01JVTRAF0HXMZCY9NBDR1R33B5,4,5,5,1.0,1,0,6,0,2,1.0,asocial
01JVTRAF0HXMZCY9NBDR1R33B5,4,6,5,1.0,0,0,3,1,2,1.0,asocial
01JVTRAF0HXMZCY9NBDR1R33B5,4,7,5,1.0,0,0,1,0,2,1.0,asocial
01JVTRAF0HXMZCY9NBDR1R33B5,4,8,5,1.0,1,0,2,0,2,1.0,asocial
01JVTRAF0HXMZCY9NBDR1R33B5,4,9,5,1.0,0,0,3,0,2,1.0,asocial
01JVTRAF0HXMZCY9NBDR1R33B5,5,0,5,1.0,0,0,4,0,5,1.0,asocial
01JVTRAF0HXMZCY9NBDR1R33B5,5,1,5,1.0,0,0,1,0,5,1.0,asocial
01JVTRAF0HXMZCY9NBDR1R33B5,5,2,5,1.0,1,0,5,0,5,1.0,asocial
01JVTRAF0HXMZCY9NBDR1R33B5,5,3,5,1.0,0,0,5,0,5,1.0,asocial
01JVTRAF0HXMZCY9NBDR1R33B5,5,4,5,1.0,0,0,4,0,5,1.0,asocial
01JVTRAF0HXMZCY9NBDR1R33B5,5,5,5,1.0,2,0,9,0,5,1.0,asocial
01JVTRAF0HXMZCY9NBDR1R33B5,5,6,5,1.0,0,0,4,1,5,1.0,asocial
01JVTRAF0HXMZCY9NBDR1R33B5,5,7,5,1.0,0,0,1,0,5,1.0,asocial
01JVTRAF0HXMZCY9NBDR1R33B5,5,8,5,1.0,1,0,2,0,5,1.0,asocial
01JVTRAF0HXMZCY9NBDR1R33B5,5,9,5,1.0,0,0,4,0,5,1.0,asocial
01JVTRAF0HXMZCY9NBDR1R33B5,6,0,5,0.0,0,0,6,0,5,1.0,asocial
01JVTRAF0HXMZCY9NBDR1R33B5,6,1,5,0.0,0,0,1,0,5,1.0,asocial
01JVTRAF0HXMZCY9NBDR1R33B5,6,2,5,0.0,1,0,6,0,5,1.0,asocial
01JVTRAF0HXMZCY9NBDR1R33B5,6,3,5,0.0,0,0,6,0,5,1.0,asocial
01JVTRAF0HXMZCY9NBDR1R33B5,6,4,5,0.0,0,0,5,0,5,1.0,asocial
01JVTRAF0HXMZCY9NBDR1R33B5,6,5,5,0.0,3,0,11,0,5,1.0,asocial
01JVTRAF0HXMZCY9NBDR1R33B5,6,6,5,0.0,0,0,5,1,5,1.0,asocial
01JVTRAF0HXMZCY9NBDR1R33B5,6,7,5,0.0,0,0,2,0,5,1.0,asocial
01JVTRAF0HXMZCY9NBDR1R33B5,6,8,5,0.0,1,0,2,0,5,1.0,asocial
01JVTRAF0HXMZCY9NBDR1R33B5,6,9,5,0.0,0,0,5,0,5,1.0,asocial
01JVTRAF0HXMZCY9NBDR1R33B5,7,0,5,1.0,0,0,7,0,5,0.0,asocial
01JVTRAF0HXMZCY9NBDR1R33B5,7,1,5,1.0,0,0,1,0,5,0.0,asocial
01JVTRAF0HXMZCY9NBDR1R33B5,7,2,5,1.0,1,0,7,0,5,0.0,asocial
01JVTRAF0HXMZCY9NBDR1R33B5,7,3,5,1.0,0,0,7,0,5,0.0,asocial
01JVTRAF0HXMZCY9NBDR1R33B5,7,4,5,1.0,0,0,6,0,5,0.0,asocial
01JVTRAF0HXMZCY9NBDR1R33B5,7,5,5,1.0,3,1,12,1,5,0.0,asocial
01JVTRAF0HXMZCY9NBDR1R33B5,7,6,5,1.0,0,0,6,1,5,0.0,asocial
01JVTRAF0HXMZCY9NBDR1R33B5,7,7,5,1.0,0,0,2,0,5,0.0,asocial
01JVTRAF0HXMZCY9NBDR1R33B5,7,8,5,1.0,1,0,3,0,5,0.0,asocial
01JVTRAF0HXMZCY9NBDR1R33B5,7,9,5,1.0,0,0,7,0,5,0.0,asocial
01JVTRAF0HXMZCY9NBDR1R33B5,8,0,5,1.0,0,0,8,0,5,1.0,asocial
01JVTRAF0HXMZCY9NBDR1R33B5,8,1,5,1.0,0,0,1,0,5,1.0,asocial
01JVTRAF0HXMZCY9NBDR1R33B5,8,2,5,1.0,1,0,8,0,5,1.0,asocial
01JVTRAF0HXMZCY9NBDR1R33B5,8,3,5,1.0,0,0,8,0,5,1.0,asocial
01JVTRAF0HXMZCY9NBDR1R33B5,8,4,5,1.0,0,0,7,0,5,1.0,asocial
01JVTRAF0HXMZCY9NBDR1R33B5,8,5,5,1.0,4,1,15,1,5,1.0,asocial
01JVTRAF0HXMZCY9NBDR1R33B5,8,6,5,1.0,0,0,7,2,5,1.0,asocial
01JVTRAF0HXMZCY9NBDR1R33B5,8,7,5,1.0,0,0,2,0,5,1.0,asocial
01JVTRAF0HXMZCY9NBDR1R33B5,8,8,5,1.0,1,0,3,0,5,1.0,asocial
01JVTRAF0HXMZCY9NBDR1R33B5,8,9,5,1.0,0,0,8,0,5,1.0,asocial
01JVTRAF0HXMZCY9NBDR1R33B5,9,0,5,1.0,0,0,8,1,5,1.0,asocial
01JVTRAF0HXMZCY9NBDR1R33B5,9,1,5,1.0,0,0,1,0,5,1.0,asocial
01JVTRAF0HXMZCY9NBDR1R33B5,9,2,5,1.0,1,0,10,0,5,1.0,asocial
01JVTRAF0HXMZCY9NBDR1R33B5,9,3,5,1.0,0,0,9,0,5,1.0,asocial
01JVTRAF0HXMZCY9NBDR1R33B5,9,4,5,1.0,0,0,8,0,5,1.0,asocial
01JVTRAF0HXMZCY9NBDR1R33B5,9,5,5,1.0,5,1,18,1,5,1.0,asocial
01JVTRAF0HXMZCY9NBDR1R33B5,9,6,5,1.0,0,0,8,2,5,1.0,asocial
01JVTRAF0HXMZCY9NBDR1R33B5,9,7,5,1.0,0,0,2,0,5,1.0,asocial
01JVTRAF0HXMZCY9NBDR1R33B5,9,8,5,1.0,1,0,3,0,5,1.0,asocial
01JVTRAF0HXMZCY9NBDR1R33B5,9,9,5,1.0,0,0,9,0,5,1.0,asocial
01JVTRAF0HXMZCY9NBDR1R33B5,10,0,7,1.0,0,0,9,1,5,1.0,asocial
01JVTRAF0HXMZCY9NBDR1R33B5,10,1,7,1.0,0,0,1,0,5,1.0,asocial
01JVTRAF0HXMZCY9NBDR1R33B5,10,2,7,1.0,1,0,11,0,5,1.0,asocial
01JVTRAF0HXMZCY9NBDR1R33B5,10,3,7,1.0,0,0,10,0,5,1.0,asocial
01JVTRAF0HXMZCY9NBDR1R33B5,10,4,7,1.0,0,0,9,0,5,1.0,asocial
01JVTRAF0HXMZCY9NBDR1R33B5,10,5,7,1.0,6,1,21,1,5,1.0,asocial
01JVTRAF0HXMZCY9NBDR1R33B5,10,6,7,1.0,0,0,9,3,5,1.0,asocial
01JVTRAF0HXMZCY9NBDR1R33B5,10,7,7,1.0,0,0,3,0,5,1.0,asocial
01JVTRAF0HXMZCY9NBDR1R33B5,10,8,7,1.0,1,0,3,0,5,1.0,asocial
01JVTRAF0HXMZCY9NBDR1R33B5,10,9,7,1.0,0,0,9,0,5,1.0,asocial
01JVTRAF0HXMZCY9NBDR1R33B5,11,0,7,1.0,0,0,10,1,7,1.0,asocial
01JVTRAF0HXMZCY9NBDR1R33B5,11,1,7,1.0,0,0,1,0,7,1.0,asocial
01JVTRAF0HXMZCY9NBDR1R33B5,11,2,7,1.0,1,0,12,0,7,1.0,asocial
01JVTRAF0HXMZCY9NBDR1R33B5,11,3,7,1.0,0,0,11,0,7,1.0,asocial
01JVTRAF0HXMZCY9NBDR1R33B5,11,4,7,1.0,0,0,10,0,7,1.0,asocial
01JVTRAF0HXMZCY9NBDR1R33B5,11,5,7,1.0,6,1,23,1,7,1.0,asocial
01JVTRAF0HXMZCY9NBDR1R33B5,11,6,7,1.0,0,0,11,3,7,1.0,asocial
01JVTRAF0HXMZCY9NBDR1R33B5,11,7,7,1.0,1,0,4,0,7,1.0,asocial
01JVTRAF0HXMZCY9NBDR1R33B5,11,8,7,1.0,1,0,4,0,7,1.0,asocial
01JVTRAF0HXMZCY9NBDR1R33B5,11,9,7,1.0,0,0,9,0,7,1.0,asocial
01JVTRAF0HXMZCY9NBDR1R33B5,12,0,8,1.0,0,0,11,1,7,1.0,asocial
01JVTRAF0HXMZCY9NBDR1R33B5,12,1,8,1.0,0,0,1,0,7,1.0,asocial
01JVTRAF0HXMZCY9NBDR1R33B5,12,2,8,1.0,1,0,13,0,7,1.0,asocial
01JVTRAF0HXMZCY9NBDR1R33B5,12,3,8,1.0,0,0,13,0,7,1.0,asocial
01JVTRAF0HXMZCY9NBDR1R33B5,12,4,8,1.0,0,0,10,1,7,1.0,asocial
01JVTRAF0HXMZCY9NBDR1R33B5,12,5,8,1.0,6,1,25,1,7,1.0,asocial
01JVTRAF0HXMZCY9NBDR1R33B5,12,6,8,1.0,0,0,12,3,7,1.0,asocial
01JVTRAF0HXMZCY9NBDR1R33B5,12,7,8,1.0,2,0,5,0,7,1.0,asocial
01JVTRAF0HXMZCY9NBDR1R33B5,12,8,8,1.0,1,0,4,0,7,1.0,asocial
01JVTRAF0HXMZCY9NBDR1R33B5,12,9,8,1.0,0,0,10,0,7,1.0,asocial
01JVTRAF0HXMZCY9NBDR1R33B5,13,0,8,1.0,0,0,12,1,8,1.0,asocial
01JVTRAF0HXMZCY9NBDR1R33B5,13,1,8,1.0,0,0,1,0,8,1.0,asocial
01JVTRAF0HXMZCY9NBDR1R33B5,13,2,8,1.0,1,0,14,0,8,1.0,asocial
01JVTRAF0HXMZCY9NBDR1R33B5,13,3,8,1.0,0,0,14,0,8,1.0,asocial
01JVTRAF0HXMZCY9NBDR1R33B5,13,4,8,1.0,0,0,10,1,8,1.0,asocial
01JVTRAF0HXMZCY9NBDR1R33B5,13,5,8,1.0,6,1,26,2,8,1.0,asocial
01JVTRAF0HXMZCY9NBDR1R33B5,13,6,8,1.0,0,0,13,3,8,1.0,asocial
01JVTRAF0HXMZCY9NBDR1R33B5,13,7,8,1.0,2,0,6,0,8,1.0,asocial
01JVTRAF0HXMZCY9NBDR1R33B5,13,8,8,1.0,2,0,5,0,8,1.0,asocial
01JVTRAF0HXMZCY9NBDR1R33B5,13,9,8,1.0,0,0,11,0,8,1.0,asocial
01JVTRAF0HXMZCY9NBDR1R33B5,14,0,8,1.0,0,0,13,1,8,1.0,asocial
01JVTRAF0HXMZCY9NBDR1R33B5,14,1,8,1.0,0,0,2,0,8,1.0,asocial
01JVTRAF0HXMZCY9NBDR1R33B5,14,2,8,1.0,1,0,14,0,8,1.0,asocial
01JVTRAF0HXMZCY9NBDR1R33B5,14,3,8,1.0,0,0,15,0,8,1.0,asocial
01JVTRAF0HXMZCY9NBDR1R33B5,14,4,8,1.0,0,0,10,1,8,1.0,asocial
01JVTRAF0HXMZCY9NBDR1R33B5,14,5,8,1.0,6,1,27,3,8,1.0,asocial
01JVTRAF0HXMZCY9NBDR1R33B5,14,6,8,1.0,0,0,13,3,8,1.0,asocial
01JVTRAF0HXMZCY9NBDR1R33B5,14,7,8,1.0,2,0,7,0,8,1.0,asocial
01JVTRAF0HXMZCY9NBDR1R33B5,14,8,8,1.0,3,0,6,0,8,1.0,asocial
01JVTRAF0HXMZCY9NBDR1R33B5,14,9,8,1.0,0,0,13,0,8,1.0,asocial
01JVTRAF0HXMZCY9NBDR1R33B5,15,0,7,1.0,0,0,14,1,8,1.0,asocial
01JVTRAF0HXMZCY9NBDR1R33B5,15,1,7,1.0,0,0,2,0,8,1.0,asocial
01JVTRAF0HXMZCY9NBDR1R33B5,15,2,7,1.0,1,0,14,0,8,1.0,asocial
01JVTRAF0HXMZCY9NBDR1R33B5,15,3,7,1.0,0,0,16,0,8,1.0,asocial
01JVTRAF0HXMZCY9NBDR1R33B5,15,4,7,1.0,0,0,11,1,8,1.0,asocial
01JVTRAF0HXMZCY9NBDR1R33B5,15,5,7,1.0,6,1,29,4,8,1.0,asocial
01JVTRAF0HXMZCY9NBDR1R33B5,15,6,7,1.0,0,0,14,3,8,1.0,asocial
01JVTRAF0HXMZCY9NBDR1R33B5,15,7,7,1.0,2,0,8,0,8,1.0,asocial
01JVTRAF0HXMZCY9NBDR1R33B5,15,8,7,1.0,4,0,7,0,8,1.0,asocial
01JVTRAF0HXMZCY9NBDR1R33B5,15,9,7,1.0,0,0,14,0,8,1.0,asocial
01JVTRAF0HXMZCY9NBDR1R33B5,16,0,7,0.0,0,0,15,1,7,1.0,asocial
01JVTRAF0HXMZCY9NBDR1R33B5,16,1,7,0.0,0,0,3,0,7,1.0,asocial
01JVTRAF0HXMZCY9NBDR1R33B5,16,2,7,0.0,1,0,14,0,7,1.0,asocial
01JVTRAF0HXMZCY9NBDR1R33B5,16,3,7,0.0,0,0,17,0,7,1.0,asocial
01JVTRAF0HXMZCY9NBDR1R33B5,16,4,7,0.0,0,0,11,1,7,1.0,asocial
01JVTRAF0HXMZCY9NBDR1R33B5,16,5,7,0.0,6,1,30,4,7,1.0,asocial
01JVTRAF0HXMZCY9NBDR1R33B5,16,6,7,0.0,0,0,14,4,7,1.0,asocial
01JVTRAF0HXMZCY9NBDR1R33B5,16,7,7,0.0,3,0,11,1,7,1.0,asocial
01JVTRAF0HXMZCY9NBDR1R33B5,16,8,7,0.0,4,0,7,0,7,1.0,asocial
01JVTRAF0HXMZCY9NBDR1R33B5,16,9,7,0.0,0,0,15,0,7,1.0,asocial
01JVTRAF0HXMZCY9NBDR1R33B5,17,0,8,1.0,0,0,16,1,7,0.0,asocial
01JVTRAF0HXMZCY9NBDR1R33B5,17,1,8,1.0,0,0,4,0,7,0.0,asocial
01JVTRAF0HXMZCY9NBDR1R33B5,17,2,8,1.0,1,0,15,0,7,0.0,asocial
01JVTRAF0HXMZCY9NBDR1R33B5,17,3,8,1.0,0,0,18,0,7,0.0,asocial
01JVTRAF0HXMZCY9NBDR1R33B5,17,4,8,1.0,0,0,11,1,7,0.0,asocial
01JVTRAF0HXMZCY9NBDR1R33B5,17,5,8,1.0,6,1,32,4,7,0.0,asocial
01JVTRAF0HXMZCY9NBDR1R33B5,17,6,8,1.0,0,0,15,4,7,0.0,asocial
01JVTRAF0HXMZCY9NBDR1R33B5,17,7,8,1.0,3,1,11,3,7,0.0,asocial
01JVTRAF0HXMZCY9NBDR1R33B5,17,8,8,1.0,4,0,7,0,7,0.0,asocial
01JVTRAF0HXMZCY9NBDR1R33B5,17,9,8,1.0,0,0,16,0,7,0.0,asocial
01JVTRAF0HXMZCY9NBDR1R33B5,18,0,8,1.0,0,0,17,1,8,1.0,asocial
01JVTRAF0HXMZCY9NBDR1R33B5,18,1,8,1.0,0,0,5,0,8,1.0,asocial
01JVTRAF0HXMZCY9NBDR1R33B5,18,2,8,1.0,1,0,17,0,8,1.0,asocial
01JVTRAF0HXMZCY9NBDR1R33B5,18,3,8,1.0,0,0,19,0,8,1.0,asocial
01JVTRAF0HXMZCY9NBDR1R33B5,18,4,8,1.0,0,0,11,1,8,1.0,asocial
01JVTRAF0HXMZCY9NBDR1R33B5,18,5,8,1.0,6,1,34,4,8,1.0,asocial
01JVTRAF0HXMZCY9NBDR1R33B5,18,6,8,1.0,0,0,16,4,8,1.0,asocial
01JVTRAF0HXMZCY9NBDR1R33B5,18,7,8,1.0,3,1,11,3,8,1.0,asocial
01JVTRAF0HXMZCY9NBDR1R33B5,18,8,8,1.0,5,0,8,0,8,1.0,asocial
01JVTRAF0HXMZCY9NBDR1R33B5,18,9,8,1.0,0,0,17,0,8,1.0,asocial
01JVTRAF0HXMZCY9NBDR1R33B5,19,0,8,1.0,0,0,19,1,8,1.0,asocial
01JVTRAF0HXMZCY9NBDR1R33B5,19,1,8,1.0,0,0,6,0,8,1.0,asocial
01JVTRAF0HXMZCY9NBDR1R33B5,19,2,8,1.0,1,0,17,1,8,1.0,asocial
01JVTRAF0HXMZCY9NBDR1R33B5,19,3,8,1.0,0,0,19,1,8,1.0,asocial
01JVTRAF0HXMZCY9NBDR1R33B5,19,4,8,1.0,0,0,11,1,8,1.0,asocial
01JVTRAF0HXMZCY9NBDR1R33B5,19,5,8,1.0,6,1,36,4,8,1.0,asocial
01JVTRAF0HXMZCY9NBDR1R33B5,19,6,8,1.0,0,0,17,4,8,1.0,asocial
01JVTRAF0HXMZCY9NBDR1R33B5,19,7,8,1.0,3,1,11,3,8,1.0,asocial
01JVTRAF0HXMZCY9NBDR1R33B5,19,8,8,1.0,6,0,9,0,8,1.0,asocial
01JVTRAF0HXMZCY9NBDR1R33B5,19,9,8,1.0,0,0,18,0,8,1.0,asocial
01JVTRAF0HXMZCY9NBDR1R33B5,20,0,8,1.0,0,0,20,1,8,1.0,asocial
01JVTRAF0HXMZCY9NBDR1R33B5,20,1,8,1.0,0,0,6,0,8,1.0,asocial
01JVTRAF0HXMZCY9NBDR1R33B5,20,2,8,1.0,1,0,17,1,8,1.0,asocial
01JVTRAF0HXMZCY9NBDR1R33B5,20,3,8,1.0,0,0,21,1,8,1.0,asocial
01JVTRAF0HXMZCY9NBDR1R33B5,20,4,8,1.0,0,0,11,1,8,1.0,asocial
01JVTRAF0HXMZCY9NBDR1R33B5,20,5,8,1.0,6,1,37,5,8,1.0,asocial
01JVTRAF0HXMZCY9NBDR1R33B5,20,6,8,1.0,0,0,18,4,8,1.0,asocial
01JVTRAF0HXMZCY9NBDR1R33B5,20,7,8,1.0,3,1,11,3,8,1.0,asocial
01JVTRAF0HXMZCY9NBDR1R33B5,20,8,8,1.0,7,0,11,0,8,1.0,asocial
01JVTRAF0HXMZCY9NBDR1R33B5,20,9,8,1.0,0,0,18,1,8,1.0,asocial
01JVTRAF0HXMZCY9NBDR1R33B5,21,0,8,1.0,0,0,21,1,8,1.0,asocial
01JVTRAF0HXMZCY9NBDR1R33B5,21,1,8,1.0,0,0,7,0,8,1.0,asocial
01JVTRAF0HXMZCY9NBDR1R33B5,21,2,8,1.0,1,0,17,1,8,1.0,asocial
01JVTRAF0HXMZCY9NBDR1R33B5,21,3,8,1.0,0,0,23,1,8,1.0,asocial
01JVTRAF0HXMZCY9NBDR1R33B5,21,4,8,1.0,0,0,12,1,8,1.0,asocial
01JVTRAF0HXMZCY9NBDR1R33B5,21,5,8,1.0,6,1,39,5,8,1.0,asocial
01JVTRAF0HXMZCY9NBDR1R33B5,21,6,8,1.0,0,0,19,4,8,1.0,asocial
01JVTRAF0HXMZCY9NBDR1R33B5,21,7,8,1.0,3,1,11,3,8,1.0,asocial
01JVTRAF0HXMZCY9NBDR1R33B5,21,8,8,1.0,8,0,13,0,8,1.0,asocial
01JVTRAF0HXMZCY9NBDR1R33B5,21,9,8,1.0,0,0,18,1,8,1.0,asocial
01JVTRAF0HXMZCY9NBDR1R33B5,22,0,8,1.0,0,0,22,1,8,1.0,asocial
01JVTRAF0HXMZCY9NBDR1R33B5,22,1,8,1.0,0,0,8,0,8,1.0,asocial
01JVTRAF0HXMZCY9NBDR1R33B5,22,2,8,1.0,1,0,17,1,8,1.0,asocial
01JVTRAF0HXMZCY9NBDR1R33B5,22,3,8,1.0,0,0,25,1,8,1.0,asocial
01JVTRAF0HXMZCY9NBDR1R33B5,22,4,8,1.0,0,0,12,1,8,1.0,asocial
01JVTRAF0HXMZCY9NBDR1R33B5,22,5,8,1.0,6,1,40,7,8,1.0,asocial
01JVTRAF0HXMZCY9NBDR1R33B5,22,6,8,1.0,0,0,20,4,8,1.0,asocial
01JVTRAF0HXMZCY9NBDR1R33B5,22,7,8,1.0,3,1,12,3,8,1.0,asocial
01JVTRAF0HXMZCY9NBDR1R33B5,22,8,8,1.0,9,0,14,0,8,1.0,asocial
01JVTRAF0HXMZCY9NBDR1R33B5,22,9,8,1.0,0,0,18,1,8,1.0,asocial
01JVTRAF0HXMZCY9NBDR1R33B5,23,0,8,1.0,0,0,23,1,8,1.0,asocial
01JVTRAF0HXMZCY9NBDR1R33B5,23,1,8,1.0,0,0,9,0,8,1.0,asocial
01JVTRAF0HXMZCY9NBDR1R33B5,23,2,8,1.0,1,0,17,2,8,1.0,asocial
01JVTRAF0HXMZCY9NBDR1R33B5,23,3,8,1.0,0,0,27,1,8,1.0,asocial
01JVTRAF0HXMZCY9NBDR1R33B5,23,4,8,1.0,0,0,12,1,8,1.0,asocial
01JVTRAF0HXMZCY9NBDR1R33B5,23,5,8,1.0,6,1,42,7,8,1.0,asocial
01JVTRAF0HXMZCY9NBDR1R33B5,23,6,8,1.0,0,0,21,4,8,1.0,asocial
01JVTRAF0HXMZCY9NBDR1R33B5,23,7,8,1.0,3,1,12,3,8,1.0,asocial
01JVTRAF0HXMZCY9NBDR1R33B5,23,8,8,1.0,10,0,15,0,8,1.0,asocial
01JVTRAF0HXMZCY9NBDR1R33B5,23,9,8,1.0,0,0,19,1,8,1.0,asocial
01JVTRAF0HXMZCY9NBDR1R33B5,24,0,8,0.0,0,0,24,1,8,1.0,asocial
01JVTRAF0HXMZCY9NBDR1R33B5,24,1,8,0.0,0,0,9,1,8,1.0,asocial
01JVTRAF0HXMZCY9NBDR1R33B5,24,2,8,0.0,1,0,18,2,8,1.0,asocial
01JVTRAF0HXMZCY9NBDR1R33B5,24,3,8,0.0,0,0,29,1,8,1.0,asocial
01JVTRAF0HXMZCY9NBDR1R33B5,24,4,8,0.0,0,0,13,1,8,1.0,asocial
01JVTRAF0HXMZCY9NBDR1R33B5,24,5,8,0.0,6,1,43,8,8,1.0,asocial
01JVTRAF0HXMZCY9NBDR1R33B5,24,6,8,0.0,0,0,21,5,8,1.0,asocial
01JVTRAF0HXMZCY9NBDR1R33B5,24,7,8,0.0,3,1,12,3,8,1.0,asocial
01JVTRAF0HXMZCY9NBDR1R33B5,24,8,8,0.0,11,0,16,0,8,1.0,asocial
01JVTRAF0HXMZCY9NBDR1R33B5,24,9,8,0.0,0,0,19,1,8,1.0,asocial
01JVTRAF0HXMZCY9NBDR1R33B5,25,0,2,1.0,0,0,28,1,8,0.0,asocial
01JVTRAF0HXMZCY9NBDR1R33B5,25,1,2,1.0,0,0,9,1,8,0.0,asocial
01JVTRAF0HXMZCY9NBDR1R33B5,25,2,2,1.0,1,0,18,2,8,0.0,asocial
01JVTRAF0HXMZCY9NBDR1R33B5,25,3,2,1.0,0,0,31,1,8,0.0,asocial
01JVTRAF0HXMZCY9NBDR1R33B5,25,4,2,1.0,0,0,13,1,8,0.0,asocial
01JVTRAF0HXMZCY9NBDR1R33B5,25,5,2,1.0,6,1,45,8,8,0.0,asocial
01JVTRAF0HXMZCY9NBDR1R33B5,25,6,2,1.0,0,0,22,5,8,0.0,asocial
01JVTRAF0HXMZCY9NBDR1R33B5,25,7,2,1.0,3,1,12,3,8,0.0,asocial
01JVTRAF0HXMZCY9NBDR1R33B5,25,8,2,1.0,11,1,16,1,8,0.0,asocial
01JVTRAF0HXMZCY9NBDR1R33B5,25,9,2,1.0,0,0,19,1,8,0.0,asocial
01JVTRAF0HXMZCY9NBDR1R33B5,26,0,2,0.0,0,0,29,1,2,1.0,asocial
01JVTRAF0HXMZCY9NBDR1R33B5,26,1,2,0.0,0,0,11,1,2,1.0,asocial
01JVTRAF0HXMZCY9NBDR1R33B5,26,2,2,0.0,2,0,19,2,2,1.0,asocial
01JVTRAF0HXMZCY9NBDR1R33B5,26,3,2,0.0,0,0,33,1,2,1.0,asocial
01JVTRAF0HXMZCY9NBDR1R33B5,26,4,2,0.0,0,0,14,1,2,1.0,asocial
01JVTRAF0HXMZCY9NBDR1R33B5,26,5,2,0.0,6,1,45,8,2,1.0,asocial
01JVTRAF0HXMZCY9NBDR1R33B5,26,6,2,0.0,0,0,23,5,2,1.0,asocial
01JVTRAF0HXMZCY9NBDR1R33B5,26,7,2,0.0,3,1,12,4,2,1.0,asocial
01JVTRAF0HXMZCY9NBDR1R33B5,26,8,2,0.0,11,1,16,1,2,1.0,asocial
01JVTRAF0HXMZCY9NBDR1R33B5,26,9,2,0.0,0,0,20,1,2,1.0,asocial
01JVTRAF0HXMZCY9NBDR1R33B5,27,0,0,0.0,0,0,31,1,2,0.0,asocial
01JVTRAF0HXMZCY9NBDR1R33B5,27,1,0,0.0,0,0,11,1,2,0.0,asocial
01JVTRAF0HXMZCY9NBDR1R33B5,27,2,0,0.0,2,1,19,3,2,0.0,asocial
01JVTRAF0HXMZCY9NBDR1R33B5,27,3,0,0.0,0,0,35,2,2,0.0,asocial
01JVTRAF0HXMZCY9NBDR1R33B5,27,4,0,0.0,0,0,14,1,2,0.0,asocial
01JVTRAF0HXMZCY9NBDR1R33B5,27,5,0,0.0,6,1,46,8,2,0.0,asocial
01JVTRAF0HXMZCY9NBDR1R33B5,27,6,0,0.0,0,0,25,5,2,0.0,asocial
01JVTRAF0HXMZCY9NBDR1R33B5,27,7,0,0.0,3,1,12,4,2,0.0,asocial
01JVTRAF0HXMZCY9NBDR1R33B5,27,8,0,0.0,11,1,17,1,2,0.0,asocial
01JVTRAF0HXMZCY9NBDR1R33B5,27,9,0,0.0,0,0,20,1,2,0.0,asocial
01JVTRAF0HXMZCY9NBDR1R33B5,28,0,1,1.0,0,1,32,2,0,0.0,asocial
01JVTRAF0HXMZCY9NBDR1R33B5,28,1,1,1.0,0,0,11,1,0,0.0,asocial
01JVTRAF0HXMZCY9NBDR1R33B5,28,2,1,1.0,2,1,20,3,0,0.0,asocial
01JVTRAF0HXMZCY9NBDR1R33B5,28,3,1,1.0,0,0,37,2,0,0.0,asocial
01JVTRAF0HXMZCY9NBDR1R33B5,28,4,1,1.0,0,0,15,1,0,0.0,asocial
01JVTRAF0HXMZCY9NBDR1R33B5,28,5,1,1.0,6,1,47,8,0,0.0,asocial
01JVTRAF0HXMZCY9NBDR1R33B5,28,6,1,1.0,0,0,27,5,0,0.0,asocial
01JVTRAF0HXMZCY9NBDR1R33B5,28,7,1,1.0,3,1,12,4,0,0.0,asocial
01JVTRAF0HXMZCY9NBDR1R33B5,28,8,1,1.0,11,1,17,1,0,0.0,asocial
01JVTRAF0HXMZCY9NBDR1R33B5,28,9,1,1.0,0,0,20,1,0,0.0,asocial
01JVTRAF0HXMZCY9NBDR1R33B5,29,0,1,1.0,0,1,33,2,1,1.0,asocial
01JVTRAF0HXMZCY9NBDR1R33B5,29,1,1,1.0,1,0,12,1,1,1.0,asocial
01JVTRAF0HXMZCY9NBDR1R33B5,29,2,1,1.0,2,1,21,3,1,1.0,asocial
01JVTRAF0HXMZCY9NBDR1R33B5,29,3,1,1.0,0,0,39,3,1,1.0,asocial
01JVTRAF0HXMZCY9NBDR1R33B5,29,4,1,1.0,0,0,15,1,1,1.0,asocial
01JVTRAF0HXMZCY9NBDR1R33B5,29,5,1,1.0,6,1,47,8,1,1.0,asocial
01JVTRAF0HXMZCY9NBDR1R33B5,29,6,1,1.0,0,0,29,5,1,1.0,asocial
01JVTRAF0HXMZCY9NBDR1R33B5,29,7,1,1.0,3,1,14,4,1,1.0,asocial
01JVTRAF0HXMZCY9NBDR1R33B5,29,8,1,1.0,11,1,17,1,1,1.0,asocial
01JVTRAF0HXMZCY9NBDR1R33B5,29,9,1,1.0,0,0,20,1,1,1.0,asocial
01JVTRAF0HXMZCY9NBDR1R33B5,30,0,1,1.0,0,1,33,3,1,1.0,asocial
01JVTRAF0HXMZCY9NBDR1R33B5,30,1,1,1.0,2,0,13,1,1,1.0,asocial
01JVTRAF0HXMZCY9NBDR1R33B5,30,2,1,1.0,2,1,23,3,1,1.0,asocial
01JVTRAF0HXMZCY9NBDR1R33B5,30,3,1,1.0,0,0,40,4,1,1.0,asocial
01JVTRAF0HXMZCY9NBDR1R33B5,30,4,1,1.0,0,0,15,1,1,1.0,asocial
01JVTRAF0HXMZCY9NBDR1R33B5,30,5,1,1.0,6,1,47,8,1,1.0,asocial
01JVTRAF0HXMZCY9NBDR1R33B5,30,6,1,1.0,0,0,30,5,1,1.0,asocial
01JVTRAF0HXMZCY9NBDR1R33B5,30,7,1,1.0,3,1,14,4,1,1.0,asocial
01JVTRAF0HXMZCY9NBDR1R33B5,30,8,1,1.0,11,1,18,1,1,1.0,asocial
01JVTRAF0HXMZCY9NBDR1R33B5,30,9,1,1.0,0,0,22,1,1,1.0,asocial
01JVTRAF0HXMZCY9NBDR1R33B5,31,0,1,1.0,0,1,34,3,1,1.0,asocial
01JVTRAF0HXMZCY9NBDR1R33B5,31,1,1,1.0,3,0,14,1,1,1.0,asocial
01JVTRAF0HXMZCY9NBDR1R33B5,31,2,1,1.0,2,1,23,5,1,1.0,asocial
01JVTRAF0HXMZCY9NBDR1R33B5,31,3,1,1.0,0,0,41,4,1,1.0,asocial
01JVTRAF0HXMZCY9NBDR1R33B5,31,4,1,1.0,0,0,16,1,1,1.0,asocial
01JVTRAF0HXMZCY9NBDR1R33B5,31,5,1,1.0,6,1,48,8,1,1.0,asocial
01JVTRAF0HXMZCY9NBDR1R33B5,31,6,1,1.0,0,0,32,5,1,1.0,asocial
01JVTRAF0HXMZCY9NBDR1R33B5,31,7,1,1.0,3,1,14,4,1,1.0,asocial
01JVTRAF0HXMZCY9NBDR1R33B5,31,8,1,1.0,11,1,19,1,1,1.0,asocial
01JVTRAF0HXMZCY9NBDR1R33B5,31,9,1,1.0,0,0,22,1,1,1.0,asocial
01JVTRAF0HXMZCY9NBDR1R33B5,32,0,1,0.0,0,1,35,3,1,1.0,asocial
01JVTRAF0HXMZCY9NBDR1R33B5,32,1,1,0.0,4,0,16,1,1,1.0,asocial
01JVTRAF0HXMZCY9NBDR1R33B5,32,2,1,0.0,2,1,24,5,1,1.0,asocial
01JVTRAF0HXMZCY9NBDR1R33B5,32,3,1,0.0,0,0,43,4,1,1.0,asocial
01JVTRAF0HXMZCY9NBDR1R33B5,32,4,1,0.0,0,0,16,1,1,1.0,asocial
01JVTRAF0HXMZCY9NBDR1R33B5,32,5,1,0.0,6,1,49,8,1,1.0,asocial
01JVTRAF0HXMZCY9NBDR1R33B5,32,6,1,0.0,0,0,33,5,1,1.0,asocial
01JVTRAF0HXMZCY9NBDR1R33B5,32,7,1,0.0,3,1,14,4,1,1.0,asocial
01JVTRAF0HXMZCY9NBDR1R33B5,32,8,1,0.0,11,1,20,1,1,1.0,asocial
01JVTRAF0HXMZCY9NBDR1R33B5,32,9,1,0.0,0,0,23,1,1,1.0,asocial
01JVTRAF0HXMZCY9NBDR1R33B5,33,0,4,1.0,0,1,36,3,1,0.0,asocial
01JVTRAF0HXMZCY9NBDR1R33B5,33,1,4,1.0,4,1,17,2,1,0.0,asocial
01JVTRAF0HXMZCY9NBDR1R33B5,33,2,4,1.0,2,1,24,5,1,0.0,asocial
01JVTRAF0HXMZCY9NBDR1R33B5,33,3,4,1.0,0,0,44,4,1,0.0,asocial
01JVTRAF0HXMZCY9NBDR1R33B5,33,4,4,1.0,0,0,17,1,1,0.0,asocial
01JVTRAF0HXMZCY9NBDR1R33B5,33,5,4,1.0,6,1,50,9,1,0.0,asocial
01JVTRAF0HXMZCY9NBDR1R33B5,33,6,4,1.0,0,0,34,5,1,0.0,asocial
01JVTRAF0HXMZCY9NBDR1R33B5,33,7,4,1.0,3,1,14,4,1,0.0,asocial
01JVTRAF0HXMZCY9NBDR1R33B5,33,8,4,1.0,11,1,21,1,1,0.0,asocial
01JVTRAF0HXMZCY9NBDR1R33B5,33,9,4,1.0,0,0,24,1,1,0.0,asocial
01JVTRAF0HXMZCY9NBDR1R33B5,34,0,4,0.0,0,1,37,3,4,1.0,asocial
01JVTRAF0HXMZCY9NBDR1R33B5,34,1,4,0.0,4,1,19,2,4,1.0,asocial
01JVTRAF0HXMZCY9NBDR1R33B5,34,2,4,0.0,2,1,24,5,4,1.0,asocial
01JVTRAF0HXMZCY9NBDR1R33B5,34,3,4,0.0,0,0,45,4,4,1.0,asocial
01JVTRAF0HXMZCY9NBDR1R33B5,34,4,4,0.0,1,0,18,1,4,1.0,asocial
01JVTRAF0HXMZCY9NBDR1R33B5,34,5,4,0.0,6,1,50,9,4,1.0,asocial
01JVTRAF0HXMZCY9NBDR1R33B5,34,6,4,0.0,0,0,35,5,4,1.0,asocial
01JVTRAF0HXMZCY9NBDR1R33B5,34,7,4,0.0,3,1,15,4,4,1.0,asocial
01JVTRAF0HXMZCY9NBDR1R33B5,34,8,4,0.0,11,1,23,1,4,1.0,asocial
01JVTRAF0HXMZCY9NBDR1R33B5,34,9,4,0.0,0,0,25,1,4,1.0,asocial
01JVTRAF0HXMZCY9NBDR1R33B5,35,0,3,1.0,0,1,38,3,4,0.0,asocial
01JVTRAF0HXMZCY9NBDR1R33B5,35,1,3,1.0,4,1,21,2,4,0.0,asocial
01JVTRAF0HXMZCY9NBDR1R33B5,35,2,3,1.0,2,1,24,5,4,0.0,asocial
01JVTRAF0HXMZCY9NBDR1R33B5,35,3,3,1.0,0,0,47,4,4,0.0,asocial
01JVTRAF0HXMZCY9NBDR1R33B5,35,4,3,1.0,1,1,18,2,4,0.0,asocial
01JVTRAF0HXMZCY9NBDR1R33B5,35,5,3,1.0,6,1,51,9,4,0.0,asocial
01JVTRAF0HXMZCY9NBDR1R33B5,35,6,3,1.0,0,0,37,5,4,0.0,asocial
01JVTRAF0HXMZCY9NBDR1R33B5,35,7,3,1.0,3,1,15,4,4,0.0,asocial
01JVTRAF0HXMZCY9NBDR1R33B5,35,8,3,1.0,11,1,24,1,4,0.0,asocial
01JVTRAF0HXMZCY9NBDR1R33B5,35,9,3,1.0,0,0,25,1,4,0.0,asocial
01JVTRAF0HXMZCY9NBDR1R33B5,36,0,3,1.0,0,1,39,3,3,1.0,asocial
01JVTRAF0HXMZCY9NBDR1R33B5,36,1,3,1.0,4,1,23,2,3,1.0,asocial
01JVTRAF0HXMZCY9NBDR1R33B5,36,2,3,1.0,2,1,24,5,3,1.0,asocial
01JVTRAF0HXMZCY9NBDR1R33B5,36,3,3,1.0,1,0,51,4,3,1.0,asocial
01JVTRAF0HXMZCY9NBDR1R33B5,36,4,3,1.0,1,1,18,2,3,1.0,asocial
01JVTRAF0HXMZCY9NBDR1R33B5,36,5,3,1.0,6,1,52,9,3,1.0,asocial
01JVTRAF0HXMZCY9NBDR1R33B5,36,6,3,1.0,0,0,38,5,3,1.0,asocial
01JVTRAF0HXMZCY9NBDR1R33B5,36,7,3,1.0,3,1,15,4,3,1.0,asocial
01JVTRAF0HXMZCY9NBDR1R33B5,36,8,3,1.0,11,1,25,1,3,1.0,asocial
01JVTRAF0HXMZCY9NBDR1R33B5,36,9,3,1.0,0,0,25,1,3,1.0,asocial
01JVTRAF0HXMZCY9NBDR1R33B5,37,0,3,1.0,0,1,40,3,3,1.0,asocial
01JVTRAF0HXMZCY9NBDR1R33B5,37,1,3,1.0,4,1,25,2,3,1.0,asocial
01JVTRAF0HXMZCY9NBDR1R33B5,37,2,3,1.0,2,1,24,5,3,1.0,asocial
01JVTRAF0HXMZCY9NBDR1R33B5,37,3,3,1.0,2,0,54,4,3,1.0,asocial
01JVTRAF0HXMZCY9NBDR1R33B5,37,4,3,1.0,1,1,19,2,3,1.0,asocial
01JVTRAF0HXMZCY9NBDR1R33B5,37,5,3,1.0,6,1,53,9,3,1.0,asocial
01JVTRAF0HXMZCY9NBDR1R33B5,37,6,3,1.0,0,0,39,5,3,1.0,asocial
01JVTRAF0HXMZCY9NBDR1R33B5,37,7,3,1.0,3,1,15,4,3,1.0,asocial
01JVTRAF0HXMZCY9NBDR1R33B5,37,8,3,1.0,11,1,26,1,3,1.0,asocial
01JVTRAF0HXMZCY9NBDR1R33B5,37,9,3,1.0,0,0,25,1,3,1.0,asocial
01JVTRAF0HXMZCY9NBDR1R33B5,38,0,3,1.0,0,1,41,3,3,1.0,asocial
01JVTRAF0HXMZCY9NBDR1R33B5,38,1,3,1.0,4,1,27,2,3,1.0,asocial
01JVTRAF0HXMZCY9NBDR1R33B5,38,2,3,1.0,2,1,24,5,3,1.0,asocial
01JVTRAF0HXMZCY9NBDR1R33B5,38,3,3,1.0,3,0,57,4,3,1.0,asocial
01JVTRAF0HXMZCY9NBDR1R33B5,38,4,3,1.0,1,1,19,2,3,1.0,asocial
01JVTRAF0HXMZCY9NBDR1R33B5,38,5,3,1.0,6,1,53,9,3,1.0,asocial
01JVTRAF0HXMZCY9NBDR1R33B5,38,6,3,1.0,0,0,40,5,3,1.0,asocial
01JVTRAF0HXMZCY9NBDR1R33B5,38,7,3,1.0,3,1,15,4,3,1.0,asocial
01JVTRAF0HXMZCY9NBDR1R33B5,38,8,3,1.0,11,1,26,2,3,1.0,asocial
01JVTRAF0HXMZCY9NBDR1R33B5,38,9,3,1.0,0,0,27,1,3,1.0,asocial
01JVTRAF0HXMZCY9NBDR1R33B5,39,0,3,1.0,0,1,42,3,3,1.0,asocial
01JVTRAF0HXMZCY9NBDR1R33B5,39,1,3,1.0,4,1,28,2,3,1.0,asocial
01JVTRAF0HXMZCY9NBDR1R33B5,39,2,3,1.0,2,1,24,5,3,1.0,asocial
01JVTRAF0HXMZCY9NBDR1R33B5,39,3,3,1.0,4,0,60,4,3,1.0,asocial
01JVTRAF0HXMZCY9NBDR1R33B5,39,4,3,1.0,1,1,20,2,3,1.0,asocial
01JVTRAF0HXMZCY9NBDR1R33B5,39,5,3,1.0,6,1,54,9,3,1.0,asocial
01JVTRAF0HXMZCY9NBDR1R33B5,39,6,3,1.0,0,0,41,5,3,1.0,asocial
01JVTRAF0HXMZCY9NBDR1R33B5,39,7,3,1.0,3,1,15,4,3,1.0,asocial
01JVTRAF0HXMZCY9NBDR1R33B5,39,8,3,1.0,11,1,27,2,3,1.0,asocial
01JVTRAF0HXMZCY9NBDR1R33B5,39,9,3,1.0,0,0,28,1,3,1.0,asocial
01JVTRAF0HXMZCY9NBDR1R33B5,40,0,3,1.0,0,1,43,3,3,1.0,asocial
01JVTRAF0HXMZCY9NBDR1R33B5,40,1,3,1.0,4,1,29,2,3,1.0,asocial
01JVTRAF0HXMZCY9NBDR1R33B5,40,2,3,1.0,2,1,24,5,3,1.0,asocial
01JVTRAF0HXMZCY9NBDR1R33B5,40,3,3,1.0,5,0,63,4,3,1.0,asocial
01JVTRAF0HXMZCY9NBDR1R33B5,40,4,3,1.0,1,1,21,2,3,1.0,asocial
01JVTRAF0HXMZCY9NBDR1R33B5,40,5,3,1.0,6,1,55,9,3,1.0,asocial
01JVTRAF0HXMZCY9NBDR1R33B5,40,6,3,1.0,0,0,42,5,3,1.0,asocial
01JVTRAF0HXMZCY9NBDR1R33B5,40,7,3,1.0,3,1,15,4,3,1.0,asocial
01JVTRAF0HXMZCY9NBDR1R33B5,40,8,3,1.0,11,1,27,2,3,1.0,asocial
01JVTRAF0HXMZCY9NBDR1R33B5,40,9,3,1.0,0,0,29,2,3,1.0,asocial
01JVTRAF0HXMZCY9NBDR1R33B5,41,0,3,1.0,0,1,44,3,3,1.0,asocial
01JVTRAF0HXMZCY9NBDR1R33B5,41,1,3,1.0,4,1,30,2,3,1.0,asocial
01JVTRAF0HXMZCY9NBDR1R33B5,41,2,3,1.0,2,1,24,5,3,1.0,asocial
01JVTRAF0HXMZCY9NBDR1R33B5,41,3,3,1.0,6,0,66,4,3,1.0,asocial
01JVTRAF0HXMZCY9NBDR1R33B5,41,4,3,1.0,1,1,22,2,3,1.0,asocial
01JVTRAF0HXMZCY9NBDR1R33B5,41,5,3,1.0,6,1,56,9,3,1.0,asocial
01JVTRAF0HXMZCY9NBDR1R33B5,41,6,3,1.0,0,0,43,5,3,1.0,asocial
01JVTRAF0HXMZCY9NBDR1R33B5,41,7,3,1.0,3,1,15,4,3,1.0,asocial
01JVTRAF0HXMZCY9NBDR1R33B5,41,8,3,1.0,11,1,28,2,3,1.0,asocial
01JVTRAF0HXMZCY9NBDR1R33B5,41,9,3,1.0,0,0,30,2,3,1.0,asocial
01JVTRAF0HXMZCY9NBDR1R33B5,42,0,3,1.0,0,1,45,3,3,1.0,asocial
01JVTRAF0HXMZCY9NBDR1R33B5,42,1,3,1.0,4,1,31,2,3,1.0,asocial
01JVTRAF0HXMZCY9NBDR1R33B5,42,2,3,1.0,2,1,24,5,3,1.0,asocial
01JVTRAF0HXMZCY9NBDR1R33B5,42,3,3,1.0,7,0,69,4,3,1.0,asocial
01JVTRAF0HXMZCY9NBDR1R33B5,42,4,3,1.0,1,1,23,2,3,1.0,asocial
01JVTRAF0HXMZCY9NBDR1R33B5,42,5,3,1.0,6,1,56,9,3,1.0,asocial
01JVTRAF0HXMZCY9NBDR1R33B5,42,6,3,1.0,0,0,44,5,3,1.0,asocial
01JVTRAF0HXMZCY9NBDR1R33B5,42,7,3,1.0,3,1,16,4,3,1.0,asocial
01JVTRAF0HXMZCY9NBDR1R33B5,42,8,3,1.0,11,1,29,2,3,1.0,asocial
01JVTRAF0HXMZCY9NBDR1R33B5,42,9,3,1.0,0,0,31,2,3,1.0,asocial
01JVTRAF0HXMZCY9NBDR1R33B5,43,0,3,1.0,0,1,46,3,3,1.0,asocial
01JVTRAF0HXMZCY9NBDR1R33B5,43,1,3,1.0,4,1,32,2,3,1.0,asocial
01JVTRAF0HXMZCY9NBDR1R33B5,43,2,3,1.0,2,1,24,5,3,1.0,asocial
01JVTRAF0HXMZCY9NBDR1R33B5,43,3,3,1.0,8,0,72,4,3,1.0,asocial
01JVTRAF0HXMZCY9NBDR1R33B5,43,4,3,1.0,1,1,24,2,3,1.0,asocial
01JVTRAF0HXMZCY9NBDR1R33B5,43,5,3,1.0,6,1,56,9,3,1.0,asocial
01JVTRAF0HXMZCY9NBDR1R33B5,43,6,3,1.0,0,0,45,5,3,1.0,asocial
01JVTRAF0HXMZCY9NBDR1R33B5,43,7,3,1.0,3,1,16,4,3,1.0,asocial
01JVTRAF0HXMZCY9NBDR1R33B5,43,8,3,1.0,11,1,30,2,3,1.0,asocial
01JVTRAF0HXMZCY9NBDR1R33B5,43,9,3,1.0,0,0,33,2,3,1.0,asocial
01JVTRAF0HXMZCY9NBDR1R33B5,44,0,3,1.0,0,1,47,3,3,1.0,asocial
01JVTRAF0HXMZCY9NBDR1R33B5,44,1,3,1.0,4,1,33,2,3,1.0,asocial
01JVTRAF0HXMZCY9NBDR1R33B5,44,2,3,1.0,2,1,24,5,3,1.0,asocial
01JVTRAF0HXMZCY9NBDR1R33B5,44,3,3,1.0,9,0,73,5,3,1.0,asocial
01JVTRAF0HXMZCY9NBDR1R33B5,44,4,3,1.0,1,1,25,2,3,1.0,asocial
01JVTRAF0HXMZCY9NBDR1R33B5,44,5,3,1.0,6,1,58,9,3,1.0,asocial
01JVTRAF0HXMZCY9NBDR1R33B5,44,6,3,1.0,0,0,46,5,3,1.0,asocial
01JVTRAF0HXMZCY9NBDR1R33B5,44,7,3,1.0,3,1,16,4,3,1.0,asocial
01JVTRAF0HXMZCY9NBDR1R33B5,44,8,3,1.0,11,1,31,2,3,1.0,asocial
01JVTRAF0HXMZCY9NBDR1R33B5,44,9,3,1.0,0,0,34,2,3,1.0,asocial
01JVTRAF0HXMZCY9NBDR1R33B5,45,0,3,1.0,0,1,48,3,3,1.0,asocial
01JVTRAF0HXMZCY9NBDR1R33B5,45,1,3,1.0,4,1,34,2,3,1.0,asocial
01JVTRAF0HXMZCY9NBDR1R33B5,45,2,3,1.0,2,1,24,5,3,1.0,asocial
01JVTRAF0HXMZCY9NBDR1R33B5,45,3,3,1.0,10,0,76,5,3,1.0,asocial
01JVTRAF0HXMZCY9NBDR1R33B5,45,4,3,1.0,1,1,25,3,3,1.0,asocial
01JVTRAF0HXMZCY9NBDR1R33B5,45,5,3,1.0,6,1,58,9,3,1.0,asocial
01JVTRAF0HXMZCY9NBDR1R33B5,45,6,3,1.0,0,0,47,5,3,1.0,asocial
01JVTRAF0HXMZCY9NBDR1R33B5,45,7,3,1.0,3,1,16,4,3,1.0,asocial
01JVTRAF0HXMZCY9NBDR1R33B5,45,8,3,1.0,11,1,31,3,3,1.0,asocial
01JVTRAF0HXMZCY9NBDR1R33B5,45,9,3,1.0,0,0,36,2,3,1.0,asocial
01JVTRAF0HXMZCY9NBDR1R33B5,46,0,3,0.0,0,1,49,3,3,1.0,asocial
01JVTRAF0HXMZCY9NBDR1R33B5,46,1,3,0.0,4,1,35,2,3,1.0,asocial
01JVTRAF0HXMZCY9NBDR1R33B5,46,2,3,0.0,2,1,24,5,3,1.0,asocial
01JVTRAF0HXMZCY9NBDR1R33B5,46,3,3,0.0,11,0,80,5,3,1.0,asocial
01JVTRAF0HXMZCY9NBDR1R33B5,46,4,3,0.0,1,1,26,3,3,1.0,asocial
01JVTRAF0HXMZCY9NBDR1R33B5,46,5,3,0.0,6,1,58,9,3,1.0,asocial
01JVTRAF0HXMZCY9NBDR1R33B5,46,6,3,0.0,0,0,49,5,3,1.0,asocial
01JVTRAF0HXMZCY9NBDR1R33B5,46,7,3,0.0,3,1,16,4,3,1.0,asocial
01JVTRAF0HXMZCY9NBDR1R33B5,46,8,3,0.0,11,1,31,3,3,1.0,asocial
01JVTRAF0HXMZCY9NBDR1R33B5,46,9,3,0.0,0,0,37,2,3,1.0,asocial
01JVTRAF0HXMZCY9NBDR1R33B5,47,0,9,1.0,0,1,50,3,3,0.0,asocial
01JVTRAF0HXMZCY9NBDR1R33B5,47,1,9,1.0,4,1,36,2,3,0.0,asocial
01JVTRAF0HXMZCY9NBDR1R33B5,47,2,9,1.0,2,1,24,5,3,0.0,asocial
01JVTRAF0HXMZCY9NBDR1R33B5,47,3,9,1.0,11,1,83,6,3,0.0,asocial
01JVTRAF0HXMZCY9NBDR1R33B5,47,4,9,1.0,1,1,27,3,3,0.0,asocial
01JVTRAF0HXMZCY9NBDR1R33B5,47,5,9,1.0,6,1,58,9,3,0.0,asocial
01JVTRAF0HXMZCY9NBDR1R33B5,47,6,9,1.0,0,0,51,5,3,0.0,asocial
01JVTRAF0HXMZCY9NBDR1R33B5,47,7,9,1.0,3,1,16,4,3,0.0,asocial
01JVTRAF0HXMZCY9NBDR1R33B5,47,8,9,1.0,11,1,31,3,3,0.0,asocial
01JVTRAF0HXMZCY9NBDR1R33B5,47,9,9,1.0,0,0,38,2,3,0.0,asocial
01JVTRAF0HXMZCY9NBDR1R33B5,48,0,9,1.0,0,1,51,3,9,1.0,asocial
01JVTRAF0HXMZCY9NBDR1R33B5,48,1,9,1.0,4,1,37,2,9,1.0,asocial
01JVTRAF0HXMZCY9NBDR1R33B5,48,2,9,1.0,2,1,24,5,9,1.0,asocial
01JVTRAF0HXMZCY9NBDR1R33B5,48,3,9,1.0,11,1,86,6,9,1.0,asocial
01JVTRAF0HXMZCY9NBDR1R33B5,48,4,9,1.0,1,1,28,3,9,1.0,asocial
01JVTRAF0HXMZCY9NBDR1R33B5,48,5,9,1.0,6,1,58,9,9,1.0,asocial
01JVTRAF0HXMZCY9NBDR1R33B5,48,6,9,1.0,0,0,53,5,9,1.0,asocial
01JVTRAF0HXMZCY9NBDR1R33B5,48,7,9,1.0,3,1,16,4,9,1.0,asocial
01JVTRAF0HXMZCY9NBDR1R33B5,48,8,9,1.0,11,1,31,3,9,1.0,asocial
01JVTRAF0HXMZCY9NBDR1R33B5,48,9,9,1.0,1,0,40,2,9,1.0,asocial
01JVTRAF0HXMZCY9NBDR1R33B5,49,0,9,1.0,0,1,52,3,9,1.0,asocial
01JVTRAF0HXMZCY9NBDR1R33B5,49,1,9,1.0,4,1,38,2,9,1.0,asocial
01JVTRAF0HXMZCY9NBDR1R33B5,49,2,9,1.0,2,1,24,5,9,1.0,asocial
01JVTRAF0HXMZCY9NBDR1R33B5,49,3,9,1.0,11,1,89,6,9,1.0,asocial
01JVTRAF0HXMZCY9NBDR1R33B5,49,4,9,1.0,1,1,28,3,9,1.0,asocial
01JVTRAF0HXMZCY9NBDR1R33B5,49,5,9,1.0,6,1,58,9,9,1.0,asocial
01JVTRAF0HXMZCY9NBDR1R33B5,49,6,9,1.0,0,0,55,5,9,1.0,asocial
01JVTRAF0HXMZCY9NBDR1R33B5,49,7,9,1.0,3,1,16,4,9,1.0,asocial
01JVTRAF0HXMZCY9NBDR1R33B5,49,8,9,1.0,11,1,31,3,9,1.0,asocial
01JVTRAF0HXMZCY9NBDR1R33B5,49,9,9,1.0,2,0,42,3,9,1.0,asocial
01JVTRAF0HXMZCY9NBDR1R33B5,50,0,9,1.0,0,1,53,3,9,1.0,asocial
01JVTRAF0HXMZCY9NBDR1R33B5,50,1,9,1.0,4,1,39,2,9,1.0,asocial
01JVTRAF0HXMZCY9NBDR1R33B5,50,2,9,1.0,2,1,24,5,9,1.0,asocial
01JVTRAF0HXMZCY9NBDR1R33B5,50,3,9,1.0,11,1,92,6,9,1.0,asocial
01JVTRAF0HXMZCY9NBDR1R33B5,50,4,9,1.0,1,1,28,4,9,1.0,asocial
01JVTRAF0HXMZCY9NBDR1R33B5,50,5,9,1.0,6,1,59,9,9,1.0,asocial
01JVTRAF0HXMZCY9NBDR1R33B5,50,6,9,1.0,0,0,57,5,9,1.0,asocial
01JVTRAF0HXMZCY9NBDR1R33B5,50,7,9,1.0,3,1,16,4,9,1.0,asocial
01JVTRAF0HXMZCY9NBDR1R33B5,50,8,9,1.0,11,1,31,3,9,1.0,asocial
01JVTRAF0HXMZCY9NBDR1R33B5,50,9,9,1.0,3,0,43,3,9,1.0,asocial
01JVTRAF0HXMZCY9NBDR1R33B5,51,0,9,1.0,0,1,54,3,9,1.0,asocial
01JVTRAF0HXMZCY9NBDR1R33B5,51,1,9,1.0,4,1,40,2,9,1.0,asocial
01JVTRAF0HXMZCY9NBDR1R33B5,51,2,9,1.0,2,1,24,5,9,1.0,asocial
01JVTRAF0HXMZCY9NBDR1R33B5,51,3,9,1.0,11,1,95,6,9,1.0,asocial
01JVTRAF0HXMZCY9NBDR1R33B5,51,4,9,1.0,1,1,28,4,9,1.0,asocial
01JVTRAF0HXMZCY9NBDR1R33B5,51,5,9,1.0,6,1,60,9,9,1.0,asocial
01JVTRAF0HXMZCY9NBDR1R33B5,51,6,9,1.0,0,0,59,5,9,1.0,asocial
01JVTRAF0HXMZCY9NBDR1R33B5,51,7,9,1.0,3,1,16,4,9,1.0,asocial
01JVTRAF0HXMZCY9NBDR1R33B5,51,8,9,1.0,11,1,32,3,9,1.0,asocial
01JVTRAF0HXMZCY9NBDR1R33B5,51,9,9,1.0,4,0,44,3,9,1.0,asocial
01JVTRAJAADTMDBY98SF5BTZYA,1,0,3,1.0,0,0,0,0,-1,,asocial
01JVTRAJAADTMDBY98SF5BTZYA,1,1,3,1.0,0,0,0,0,-1,,asocial
01JVTRAJAADTMDBY98SF5BTZYA,1,2,3,1.0,0,0,0,0,-1,,asocial
01JVTRAJAADTMDBY98SF5BTZYA,1,3,3,1.0,0,0,0,0,-1,,asocial
01JVTRAJAADTMDBY98SF5BTZYA,1,4,3,1.0,0,0,0,0,-1,,asocial
01JVTRAJAADTMDBY98SF5BTZYA,1,5,3,1.0,0,0,0,0,-1,,asocial
01JVTRAJAADTMDBY98SF5BTZYA,1,6,3,1.0,0,0,0,0,-1,,asocial
01JVTRAJAADTMDBY98SF5BTZYA,1,7,3,1.0,0,0,0,0,-1,,asocial
01JVTRAJAADTMDBY98SF5BTZYA,1,8,3,1.0,0,0,0,0,-1,,asocial
01JVTRAJAADTMDBY98SF5BTZYA,1,9,3,1.0,0,0,0,0,-1,,asocial
01JVTRAJAADTMDBY98SF5BTZYA,2,0,3,1.0,0,0,1,0,3,1.0,asocial
01JVTRAJAADTMDBY98SF5BTZYA,2,1,3,1.0,0,0,1,0,3,1.0,asocial
01JVTRAJAADTMDBY98SF5BTZYA,2,2,3,1.0,0,0,1,0,3,1.0,asocial
01JVTRAJAADTMDBY98SF5BTZYA,2,3,3,1.0,1,0,1,0,3,1.0,asocial
01JVTRAJAADTMDBY98SF5BTZYA,2,4,3,1.0,0,0,1,0,3,1.0,asocial
01JVTRAJAADTMDBY98SF5BTZYA,2,5,3,1.0,0,0,1,0,3,1.0,asocial
01JVTRAJAADTMDBY98SF5BTZYA,2,6,3,1.0,0,0,1,0,3,1.0,asocial
01JVTRAJAADTMDBY98SF5BTZYA,2,7,3,1.0,0,0,1,0,3,1.0,asocial
01JVTRAJAADTMDBY98SF5BTZYA,2,8,3,1.0,0,0,1,0,3,1.0,asocial
01JVTRAJAADTMDBY98SF5BTZYA,2,9,3,1.0,0,0,1,0,3,1.0,asocial
01JVTRAJAADTMDBY98SF5BTZYA,3,0,3,1.0,0,0,2,0,3,1.0,asocial
01JVTRAJAADTMDBY98SF5BTZYA,3,1,3,1.0,0,0,1,0,3,1.0,asocial
01JVTRAJAADTMDBY98SF5BTZYA,3,2,3,1.0,0,0,2,0,3,1.0,asocial
01JVTRAJAADTMDBY98SF5BTZYA,3,3,3,1.0,2,0,2,0,3,1.0,asocial
01JVTRAJAADTMDBY98SF5BTZYA,3,4,3,1.0,0,0,2,0,3,1.0,asocial
01JVTRAJAADTMDBY98SF5BTZYA,3,5,3,1.0,0,0,4,0,3,1.0,asocial
01JVTRAJAADTMDBY98SF5BTZYA,3,6,3,1.0,0,0,2,0,3,1.0,asocial
01JVTRAJAADTMDBY98SF5BTZYA,3,7,3,1.0,0,0,1,0,3,1.0,asocial
01JVTRAJAADTMDBY98SF5BTZYA,3,8,3,1.0,0,0,2,0,3,1.0,asocial
01JVTRAJAADTMDBY98SF5BTZYA,3,9,3,1.0,0,0,2,0,3,1.0,asocial
01JVTRAJAADTMDBY98SF5BTZYA,4,0,3,1.0,0,0,3,0,3,1.0,asocial
01JVTRAJAADTMDBY98SF5BTZYA,4,1,3,1.0,0,0,1,0,3,1.0,asocial
01JVTRAJAADTMDBY98SF5BTZYA,4,2,3,1.0,0,0,4,0,3,1.0,asocial
01JVTRAJAADTMDBY98SF5BTZYA,4,3,3,1.0,3,0,3,0,3,1.0,asocial
01JVTRAJAADTMDBY98SF5BTZYA,4,4,3,1.0,0,0,3,0,3,1.0,asocial
01JVTRAJAADTMDBY98SF5BTZYA,4,5,3,1.0,0,0,6,0,3,1.0,asocial
01JVTRAJAADTMDBY98SF5BTZYA,4,6,3,1.0,0,0,3,1,3,1.0,asocial
01JVTRAJAADTMDBY98SF5BTZYA,4,7,3,1.0,0,0,1,0,3,1.0,asocial
01JVTRAJAADTMDBY98SF5BTZYA,4,8,3,1.0,0,0,2,0,3,1.0,asocial
01JVTRAJAADTMDBY98SF5BTZYA,4,9,3,1.0,0,0,3,0,3,1.0,asocial
01JVTRAJAADTMDBY98SF5BTZYA,5,0,3,1.0,0,0,4,0,3,1.0,asocial
01JVTRAJAADTMDBY98SF5BTZYA,5,1,3,1.0,0,0,1,0,3,1.0,asocial
01JVTRAJAADTMDBY98SF5BTZYA,5,2,3,1.0,0,0,5,0,3,1.0,asocial
01JVTRAJAADTMDBY98SF5BTZYA,5,3,3,1.0,4,0,5,0,3,1.0,asocial
01JVTRAJAADTMDBY98SF5BTZYA,5,4,3,1.0,0,0,4,0,3,1.0,asocial
01JVTRAJAADTMDBY98SF5BTZYA,5,5,3,1.0,0,0,9,0,3,1.0,asocial
01JVTRAJAADTMDBY98SF5BTZYA,5,6,3,1.0,0,0,4,1,3,1.0,asocial
01JVTRAJAADTMDBY98SF5BTZYA,5,7,3,1.0,0,0,1,0,3,1.0,asocial
01JVTRAJAADTMDBY98SF5BTZYA,5,8,3,1.0,0,0,2,0,3,1.0,asocial
01JVTRAJAADTMDBY98SF5BTZYA,5,9,3,1.0,0,0,4,0,3,1.0,asocial
01JVTRAJAADTMDBY98SF5BTZYA,6,0,3,1.0,0,0,6,0,3,1.0,asocial
01JVTRAJAADTMDBY98SF5BTZYA,6,1,3,1.0,0,0,1,0,3,1.0,asocial
01JVTRAJAADTMDBY98SF5BTZYA,6,2,3,1.0,0,0,6,0,3,1.0,asocial
01JVTRAJAADTMDBY98SF5BTZYA,6,3,3,1.0,5,0,6,0,3,1.0,asocial
01JVTRAJAADTMDBY98SF5BTZYA,6,4,3,1.0,0,0,5,0,3,1.0,asocial
01JVTRAJAADTMDBY98SF5BTZYA,6,5,3,1.0,0,0,11,0,3,1.0,asocial
01JVTRAJAADTMDBY98SF5BTZYA,6,6,3,1.0,0,0,5,1,3,1.0,asocial
01JVTRAJAADTMDBY98SF5BTZYA,6,7,3,1.0,0,0,2,0,3,1.0,asocial
01JVTRAJAADTMDBY98SF5BTZYA,6,8,3,1.0,0,0,2,0,3,1.0,asocial
01JVTRAJAADTMDBY98SF5BTZYA,6,9,3,1.0,0,0,5,0,3,1.0,asocial
01JVTRAJAADTMDBY98SF5BTZYA,7,0,3,1.0,0,0,7,0,3,1.0,asocial
01JVTRAJAADTMDBY98SF5BTZYA,7,1,3,1.0,0,0,1,0,3,1.0,asocial
01JVTRAJAADTMDBY98SF5BTZYA,7,2,3,1.0,0,0,7,0,3,1.0,asocial
01JVTRAJAADTMDBY98SF5BTZYA,7,3,3,1.0,6,0,7,0,3,1.0,asocial
01JVTRAJAADTMDBY98SF5BTZYA,7,4,3,1.0,0,0,6,0,3,1.0,asocial
01JVTRAJAADTMDBY98SF5BTZYA,7,5,3,1.0,0,0,12,1,3,1.0,asocial
01JVTRAJAADTMDBY98SF5BTZYA,7,6,3,1.0,0,0,6,1,3,1.0,asocial
01JVTRAJAADTMDBY98SF5BTZYA,7,7,3,1.0,0,0,2,0,3,1.0,asocial
01JVTRAJAADTMDBY98SF5BTZYA,7,8,3,1.0,0,0,3,0,3,1.0,asocial
01JVTRAJAADTMDBY98SF5BTZYA,7,9,3,1.0,0,0,7,0,3,1.0,asocial
01JVTRAJAADTMDBY98SF5BTZYA,8,0,3,1.0,0,0,8,0,3,1.0,asocial
01JVTRAJAADTMDBY98SF5BTZYA,8,1,3,1.0,0,0,1,0,3,1.0,asocial
01JVTRAJAADTMDBY98SF5BTZYA,8,2,3,1.0,0,0,8,0,3,1.0,asocial
01JVTRAJAADTMDBY98SF5BTZYA,8,3,3,1.0,7,0,8,0,3,1.0,asocial
01JVTRAJAADTMDBY98SF5BTZYA,8,4,3,1.0,0,0,7,0,3,1.0,asocial
01JVTRAJAADTMDBY98SF5BTZYA,8,5,3,1.0,0,0,15,1,3,1.0,asocial
01JVTRAJAADTMDBY98SF5BTZYA,8,6,3,1.0,0,0,7,2,3,1.0,asocial
01JVTRAJAADTMDBY98SF5BTZYA,8,7,3,1.0,0,0,2,0,3,1.0,asocial
01JVTRAJAADTMDBY98SF5BTZYA,8,8,3,1.0,0,0,3,0,3,1.0,asocial
01JVTRAJAADTMDBY98SF5BTZYA,8,9,3,1.0,0,0,8,0,3,1.0,asocial
01JVTRAJAADTMDBY98SF5BTZYA,9,0,3,1.0,0,0,8,1,3,1.0,asocial
01JVTRAJAADTMDBY98SF5BTZYA,9,1,3,1.0,0,0,1,0,3,1.0,asocial
01JVTRAJAADTMDBY98SF5BTZYA,9,2,3,1.0,0,0,10,0,3,1.0,asocial
01JVTRAJAADTMDBY98SF5BTZYA,9,3,3,1.0,8,0,9,0,3,1.0,asocial
01JVTRAJAADTMDBY98SF5BTZYA,9,4,3,1.0,0,0,8,0,3,1.0,asocial
01JVTRAJAADTMDBY98SF5BTZYA,9,5,3,1.0,0,0,18,1,3,1.0,asocial
01JVTRAJAADTMDBY98SF5BTZYA,9,6,3,1.0,0,0,8,2,3,1.0,asocial
01JVTRAJAADTMDBY98SF5BTZYA,9,7,3,1.0,0,0,2,0,3,1.0,asocial
01JVTRAJAADTMDBY98SF5BTZYA,9,8,3,1.0,0,0,3,0,3,1.0,asocial
01JVTRAJAADTMDBY98SF5BTZYA,9,9,3,1.0,0,0,9,0,3,1.0,asocial
01JVTRAJAADTMDBY98SF5BTZYA,10,0,3,1.0,0,0,9,1,3,1.0,asocial
01JVTRAJAADTMDBY98SF5BTZYA,10,1,3,1.0,0,0,1,0,3,1.0,asocial
01JVTRAJAADTMDBY98SF5BTZYA,10,2,3,1.0,0,0,11,0,3,1.0,asocial
01JVTRAJAADTMDBY98SF5BTZYA,10,3,3,1.0,9,0,10,0,3,1.0,asocial
01JVTRAJAADTMDBY98SF5BTZYA,10,4,3,1.0,0,0,9,0,3,1.0,asocial
01JVTRAJAADTMDBY98SF5BTZYA,10,5,3,1.0,0,0,21,1,3,1.0,asocial
01JVTRAJAADTMDBY98SF5BTZYA,10,6,3,1.0,0,0,9,3,3,1.0,asocial
01JVTRAJAADTMDBY98SF5BTZYA,10,7,3,1.0,0,0,3,0,3,1.0,asocial
01JVTRAJAADTMDBY98SF5BTZYA,10,8,3,1.0,0,0,3,0,3,1.0,asocial
01JVTRAJAADTMDBY98SF5BTZYA,10,9,3,1.0,0,0,9,0,3,1.0,asocial
01JVTRAJAADTMDBY98SF5BTZYA,11,0,3,1.0,0,0,10,1,3,1.0,asocial
01JVTRAJAADTMDBY98SF5BTZYA,11,1,3,1.0,0,0,1,0,3,1.0,asocial
01JVTRAJAADTMDBY98SF5BTZYA,11,2,3,1.0,0,0,12,0,3,1.0,asocial
01JVTRAJAADTMDBY98SF5BTZYA,11,3,3,1.0,10,0,11,0,3,1.0,asocial
01JVTRAJAADTMDBY98SF5BTZYA,11,4,3,1.0,0,0,10,0,3,1.0,asocial
01JVTRAJAADTMDBY98SF5BTZYA,11,5,3,1.0,0,0,23,1,3,1.0,asocial
01JVTRAJAADTMDBY98SF5BTZYA,11,6,3,1.0,0,0,11,3,3,1.0,asocial
01JVTRAJAADTMDBY98SF5BTZYA,11,7,3,1.0,0,0,4,0,3,1.0,asocial
01JVTRAJAADTMDBY98SF5BTZYA,11,8,3,1.0,0,0,4,0,3,1.0,asocial
01JVTRAJAADTMDBY98SF5BTZYA,11,9,3,1.0,0,0,9,0,3,1.0,asocial
01JVTRAJAADTMDBY98SF5BTZYA,12,0,3,1.0,0,0,11,1,3,1.0,asocial
01JVTRAJAADTMDBY98SF5BTZYA,12,1,3,1.0,0,0,1,0,3,1.0,asocial
01JVTRAJAADTMDBY98SF5BTZYA,12,2,3,1.0,0,0,13,0,3,1.0,asocial
01JVTRAJAADTMDBY98SF5BTZYA,12,3,3,1.0,11,0,13,0,3,1.0,asocial
01JVTRAJAADTMDBY98SF5BTZYA,12,4,3,1.0,0,0,10,1,3,1.0,asocial
01JVTRAJAADTMDBY98SF5BTZYA,12,5,3,1.0,0,0,25,1,3,1.0,asocial
01JVTRAJAADTMDBY98SF5BTZYA,12,6,3,1.0,0,0,12,3,3,1.0,asocial
01JVTRAJAADTMDBY98SF5BTZYA,12,7,3,1.0,0,0,5,0,3,1.0,asocial
01JVTRAJAADTMDBY98SF5BTZYA,12,8,3,1.0,0,0,4,0,3,1.0,asocial
01JVTRAJAADTMDBY98SF5BTZYA,12,9,3,1.0,0,0,10,0,3,1.0,asocial
